time,seconds_elapsed,z,y,x
1748517865863652600,0.226652587890625,8.18674373626709,4.7865424156188965,1.5074782371520996
1748517865882460700,0.245460693359375,8.18674373626709,4.755435943603516,1.3854442834854126
1748517865901269000,0.26426904296875,8.222636222839355,4.8176493644714355,1.4883357286453247
1748517865920077000,0.2830771484375,8.239385604858398,4.896612644195557,1.7587246894836426
1748517865938885000,0.301885009765625,8.296813011169434,4.796113967895508,1.7754744291305542
1748517865957693400,0.320693359375,8.437990188598633,4.772185802459717,1.5314065217971802
1748517865976501500,0.33950146484375,8.370990753173828,4.683651447296143,1.4093725681304932
1748517865995309600,0.3583095703125,8.342276573181152,4.77457857131958,1.4979069232940674
1748517866014117600,0.37711767578125,8.359026908874512,4.810471057891846,1.581655740737915
1748517866032925700,0.39592578125,8.282456398010254,4.805685043334961,1.6319050788879395
1748517866051734000,0.414734130859375,8.222636222839355,4.827220439910889,1.5481562614440918
1748517866070542000,0.4335419921875,8.16281509399414,4.822434902191162,1.526620864868164
1748517866089350100,0.45235009765625,8.141280174255371,4.8176493644714355,1.4979069232940674
1748517866108158200,0.471158203125,8.234600067138672,4.784149646759033,1.4620146751403809
1748517866126966500,0.489966552734375,8.181958198547363,4.805685043334961,1.423729419708252
1748517866145774600,0.508774658203125,8.260921478271484,4.858327388763428,1.5170495510101318
1748517866164582700,0.527582763671875,8.236992835998535,4.721936225891113,1.5936198234558105
1748517866183391000,0.546390869140625,8.308777809143066,4.745864391326904,1.4739787578582764
1748517866202199000,0.565198974609375,8.275278091430664,4.7697930335998535,1.3710874319076538
1748517866221007000,0.584007080078125,8.284849166870117,4.726722240447998,1.4763715267181396
1748517866239815400,0.6028154296875,8.387741088867188,4.765007019042969,1.6390835046768188
1748517866258623500,0.62162353515625,8.44277572631836,4.733900547027588,1.6079767942428589
1748517866277431600,0.640431640625,8.373383522033691,4.702793598175049,1.3423734903335571
1748517866296239600,0.659239501953125,8.256134986877441,4.707579612731934,1.2993026971817017
1748517866315048000,0.6780478515625,8.244171142578125,4.767399787902832,1.4979069232940674
1748517866333856000,0.69685595703125,8.227421760559082,4.767399787902832,1.5433706045150757
1748517866352664000,0.7156640625,8.222636222839355,4.815256595611572,1.4715858697891235
1748517866371472400,0.734472412109375,8.19392204284668,4.808077812194824,1.5337992906570435
1748517866390280400,0.753280517578125,8.339883804321289,4.84397029876709,1.5744773149490356
1748517866409088500,0.772088623046875,8.51456069946289,4.791328430175781,1.581655740737915
1748517866427896800,0.790896728515625,8.676973342895508,4.7697930335998535,1.5960127115249634
1748517866446705000,0.809704833984375,8.571988105773926,4.791328430175781,1.6271194219589233
1748517866465513000,0.828512939453125,8.382954597473145,4.867898464202881,1.5026925802230835
1748517866484321300,0.8473212890625,8.265707015991211,4.894219398498535,1.4404792785644531
1748517866503129300,0.86612939453125,8.174779891967773,4.860720157623291,1.3830515146255493
1748517866521937700,0.884937744140625,8.129315376281738,4.841577529907227,1.2969099283218384
1748517866540745700,0.903745849609375,8.153244018554688,4.824827671051025,1.397408366203308
1748517866559553800,0.9225537109375,8.268099784851074,4.803292274475098,1.4883357286453247
1748517866578362000,0.941362060546875,8.375776290893555,4.805685043334961,1.4093725681304932
1748517866597170200,0.960170166015625,8.382954597473145,4.803292274475098,1.3950155973434448
1748517866615978500,0.978978515625,8.306385040283203,4.779364109039307,1.2945170402526855
1748517866634786600,0.99778662109375,8.253742218017578,4.779364109039307,1.2251251935958862
1748517866653594600,1.0165947265625,8.184350967407227,4.803292274475098,1.3567304611206055
1748517866672403000,1.03540283203125,8.241778373718262,4.84397029876709,1.4715858697891235
1748517866691211000,1.0542109375,8.414061546325684,4.870291233062744,1.4811571836471558
1748517866710019300,1.073019287109375,8.495417594909668,4.853541851043701,1.4165509939193726
1748517866728827400,1.091827392578125,8.478668212890625,4.743471622467041,1.3878371715545654
1748517866747635700,1.1106357421875,8.382954597473145,4.765007019042969,1.34476637840271
1748517866766443800,1.12944384765625,8.315956115722656,4.889433860778809,1.373480200767517
1748517866785252000,1.148252197265625,8.299205780029297,4.877470016479492,1.4979069232940674
1748517866804060200,1.16706005859375,8.380561828613281,4.84397029876709,1.4213366508483887
1748517866822868500,1.185868408203125,8.43559741973877,4.805685043334961,1.3950155973434448
1748517866841676500,1.204676513671875,8.409276008605957,4.824827671051025,1.495514154434204
1748517866860484900,1.22348486328125,8.31117057800293,4.78893518447876,1.4333007335662842
1748517866879293000,1.24229296875,8.244171142578125,4.779364109039307,1.2921242713928223
1748517866898101200,1.261101318359375,8.342276573181152,4.812863826751709,1.3351950645446777
1748517866916909300,1.279909423828125,8.40449047088623,4.78893518447876,1.4189438819885254
1748517866935717600,1.298717529296875,8.426025390625,4.805685043334961,1.4141582250595093
1748517866954525700,1.317525634765625,8.421239852905273,4.839184761047363,1.4620146751403809
1748517866973334000,1.336333984375,8.423632621765137,4.765007019042969,1.5864413976669312
1748517866992142000,1.35514208984375,8.28006362915039,4.839184761047363,1.5290136337280273
1748517867010950400,1.373950439453125,8.148458480834961,4.85114860534668,1.3112667798995972
1748517867029758500,1.392758544921875,8.081459045410156,4.798506736755371,1.2801600694656372
1748517867048566800,1.41156689453125,7.909176349639893,4.743471622467041,1.4476577043533325
1748517867067375000,1.430375,7.528717517852783,4.731507778167725,1.4093725681304932
1748517867086183200,1.44918310546875,7.2320075035095215,4.4635114669799805,1.3280165195465088
1748517867104991500,1.467991455078125,6.841977119445801,4.2816572189331055,0.7322037220001221
1748517867123799600,1.486799560546875,6.023632049560547,4.099802494049072,-0.2679961323738098
1748517867142608000,1.50560791015625,6.349055767059326,3.535395383834839,-0.8036893010139465
1748517867161416200,1.524416259765625,8.430811882019043,3.1932218074798584,0.6747759580612183
1748517867180224300,1.543224365234375,10.134202003479004,2.5567309856414795,2.234896421432495
1748517867199032600,1.562032470703125,10.718050956726074,2.2121646404266357,2.646162748336792
1748517867217840600,1.580840576171875,11.318649291992188,1.817348837852478,2.3952155113220215
1748517867236649000,1.59964892578125,10.97169017791748,1.0205388069152832,2.579462766647339
1748517867255457300,1.618457275390625,10.74437141418457,0.39870408177375793,3.1773693561553955
1748517867274265300,1.637265380859375,10.698907852172852,1.9824535846710205,3.708575963973999
1748517867293073700,1.65607373046875,8.476275444030762,3.245863914489746,2.928515911102295
1748517867311882000,1.674882080078125,6.566802501678467,2.149951219558716,3.10319185256958
1748517867330690000,1.69368994140625,6.413661956787109,3.822235107421875,0.4450650215148926
1748517867349498400,1.712498291015625,5.650650501251221,2.592623233795166,0.5670989751815796
1748517867368306400,1.731306396484375,8.064709663391113,-0.7211369276046753,1.7682958841323853
1748517867387114800,1.75011474609375,10.911869049072266,0.9678967595100403,1.5314065217971802
1748517867405923000,1.768923095703125,10.96451187133789,2.3676979541778564,1.3519448041915894
1748517867424731400,1.7877314453125,8.2728853225708,2.0279171466827393,2.3569302558898926
1748517867443539500,1.80653955078125,7.858926773071289,2.389233350753784,3.9574296474456787
1748517867462347800,1.82534765625,8.92821979522705,2.9802606105804443,4.785346031188965
1748517867481156000,1.844156005859375,8.51456069946289,2.0829520225524902,5.436193943023682
1748517867499964200,1.862964111328125,8.29442024230957,1.8221344947814941,5.679962635040283
1748517867518772500,1.8817724609375,8.52173900604248,1.9058831930160522,5.696712493896484
1748517867537580800,1.900580810546875,8.638688087463379,1.8819550275802612,6.285346984863281
1748517867556388900,1.919388916015625,8.971290588378906,2.1068804264068604,7.094120979309082
1748517867575197200,1.938197265625,7.794320583343506,2.7601208686828613,6.670591354370117
1748517867594005500,1.957005615234375,7.33968448638916,2.1403799057006836,6.055635929107666
1748517867612813600,1.9758134765625,6.8395843505859375,2.0135602951049805,6.127420425415039
1748517867631622000,1.994621826171875,5.346762180328369,2.0279171466827393,6.452844619750977
1748517867650430200,2.01343017578125,4.9639105796813965,1.5541383028030396,7.007979393005371
1748517867669238500,2.032238525390625,6.356234073638916,1.2646067142486572,7.086942672729492
1748517867688046600,2.051046630859375,8.191529273986816,0.4345964193344116,6.773482799530029
1748517867819704300,2.182704345703125,6.8395843505859375,0.10677970945835114,6.321238994598389
1748517867904341500,2.267341552734375,9.648459434509277,0.2072782665491104,6.541378974914551
1748517867932554000,2.295553955078125,6.215057849884033,-0.831206738948822,11.207083702087402
1748517867970170400,2.33317041015625,2.2076780796051025,-2.259422779083252,9.912567138671875
1748517867988978700,2.351978759765625,1.2553346157073975,-2.7427730560302734,8.386244773864746
1748517868007787000,2.370787109375,0.36999019980430603,-2.407777786254883,6.653841495513916
1748517868026595000,2.389594970703125,-2.1158533096313477,-1.55623197555542,4.35463809967041
1748517868045403400,2.4084033203125,-5.623432159423828,0.5159524083137512,0.8183453679084778
1748517868064211700,2.427211669921875,-2.11824631690979,-1.7548363208770752,3.1917262077331543
1748517868083020000,2.44602001953125,-4.513162612915039,-5.575575828552246,5.464907646179199
1748517868101828400,2.464828369140625,-7.551748275756836,-6.999305248260498,6.488736629486084
1748517868120636400,2.483636474609375,-8.46341323852539,-7.571189880371094,8.357531547546387
1748517868139444700,2.50244482421875,-10.118947982788086,-7.674081325531006,9.649356842041016
1748517868167657200,2.5306572265625,-31.654651641845703,-4.111467361450195,1.8472590446472168
1748517868186465300,2.54946533203125,-1.3525429964065552,-5.900999546051025,15.121143341064453
1748517868224082000,2.58708203125,1.3965110778808594,-5.568397521972656,15.635600090026855
1748517868242890200,2.60589013671875,-1.5343974828720093,-5.336293697357178,11.037193298339844
1748517868261698600,2.624698486328125,-10.872687339782715,-5.3578290939331055,8.005785942077637
1748517868280506600,2.643506591796875,-28.30499839782715,-1.80508553981781,4.955236434936523
1748517868299315000,2.66231494140625,-8.293522834777832,-1.415055513381958,6.708876609802246
1748517868318123300,2.681123291015625,1.8894325494766235,-4.570889472961426,9.331110954284668
1748517868355740000,2.718739990234375,3.504288673400879,-3.580260992050171,8.027321815490723
1748517868393356300,2.756356201171875,-0.07746763527393341,-3.139981508255005,10.582557678222656
1748517868412164600,2.77516455078125,-8.539983749389648,-3.0825538635253906,4.596312999725342
1748517868440376800,2.803376953125,-1.4219348430633545,-4.874777793884277,0.6867401003837585
1748517868459185200,2.82218505859375,-2.431705951690674,-5.417649745941162,3.361616611480713
1748517868496801800,2.8598017578125,-3.6182470321655273,-6.614060878753662,6.242276191711426
1748517868515610000,2.878610107421875,-2.3718855381011963,-8.764909744262695,8.324031829833984
1748517868534418200,2.897418212890625,-2.307279348373413,-5.877071380615234,5.232803821563721
1748517868553226500,2.9162265625,-3.41007137298584,-4.267001152038574,7.058228492736816
1748517868572034800,2.935034912109375,-7.427321434020996,-3.1304101943969727,4.428815841674805
1748517868590843100,2.953843017578125,-5.621039390563965,-5.566004753112793,5.818746566772461
1748517868609651200,2.972651123046875,-3.8407795429229736,-6.623631954193115,9.151649475097656
1748517868628459500,2.99145947265625,-7.211967468261719,-0.8359923958778381,4.194318771362305
1748517868647267800,3.010267822265625,-5.3339009284973145,-6.429813385009766,12.963116645812988
1748517868666076200,3.029076171875,-3.0753753185272217,-2.2019951343536377,12.139986038208008
1748517868684884500,3.047884521484375,-3.843172311782837,-6.6714887619018555,7.419544696807861
1748517868703692500,3.066692626953125,-4.66151762008667,-9.023334503173828,4.971986293792725
1748517868722500900,3.0855009765625,-5.39132833480835,-8.159524917602539,2.8375885486602783
1748517868741309200,3.10430908203125,-4.2092742919921875,-9.817750930786133,5.840281963348389
1748517868760117500,3.123117431640625,-4.680660247802734,-11.549856185913086,6.156134605407715
1748517868778925600,3.141925537109375,-4.477270126342773,-12.679267883300781,5.904888153076172
1748517868797734000,3.16073388671875,-5.6808600425720215,-10.179067611694336,4.4120659828186035
1748517868816542200,3.179542236328125,1.0710872411727905,-5.865107536315918,5.507978439331055
1748517868835350500,3.1983505859375,0.7025925517082214,-5.676074504852295,8.395816802978516
1748517868854158800,3.217158935546875,-3.924528121948242,-8.489734649658203,2.493321180343628
1748517868872967000,3.235966796875,-5.865107536315918,-11.549856185913086,-0.22971096634864807
1748517868891775200,3.254775146484375,-6.211767673492432,-16.366308212280273,1.1988041400909424
1748517868910583600,3.27358349609375,-4.809872627258301,-10.729416847229004,-1.3923237323760986
1748517868938796000,3.301796142578125,-4.489234447479248,-6.776772975921631,2.179861545562744
1748517868957604400,3.320604248046875,-4.4054856300354,-3.745365619659424,1.0480563640594482
1748517868976412400,3.339412353515625,-3.063411235809326,-7.061518669128418,2.6676981449127197
1748517868995220700,3.358220703125,-3.5273196697235107,-6.707380771636963,1.1676974296569824
1748517869014029000,3.377029052734375,-3.41007137298584,-4.295714855194092,-0.8994022011756897
1748517869032837400,3.39583740234375,-3.788137435913086,-6.769594192504883,1.2634103298187256
1748517869051645700,3.414645751953125,-2.8073792457580566,-6.051747798919678,0.9451649188995361
1748517869070454000,3.4334541015625,-3.213859796524048,-3.1998021602630615,-0.20338992774486542
1748517869089262300,3.452262451171875,-2.283350944519043,-5.927320957183838,2.0673987865448
1748517869108070400,3.4710703125,-2.1996021270751953,-9.068798065185547,1.1222338676452637
1748517869126878700,3.489878662109375,-2.575275421142578,-6.432206153869629,1.3663017749786377
1748517869145687000,3.50868701171875,-4.951049327850342,-12.652947425842285,0.7537391185760498
1748517869164495400,3.527495361328125,-1.3884353637695312,-18.73490333557129,-0.4447658956050873
1748517869183303700,3.5463037109375,-0.41934216022491455,-10.554740905761719,-1.7177475690841675
1748517869202112000,3.565112060546875,-3.0681967735290527,-10.124032974243164,-2.6988048553466797
1748517869220920300,3.58392041015625,-1.043868899345398,-5.623432159423828,-4.117449760437012
1748517869239728600,3.602728759765625,-6.159125328063965,-6.128317832946777,-7.5341010093688965
1748517869258537000,3.621536865234375,0.08045866340398788,-13.916058540344238,-7.206284523010254
1748517869277345000,3.640344970703125,-1.2113664150238037,-15.418750762939453,-5.021936416625977
1748517869296153300,3.6591533203125,-2.1373889446258545,-13.954343795776367,-5.8235321044921875
1748517869314961700,3.677961669921875,0.37956148386001587,-15.232110977172852,-4.990829944610596
1748517869333770000,3.69677001953125,-0.8787640929222107,-14.495121002197266,-5.340181827545166
1748517869352578300,3.715578369140625,-2.103889226913452,-6.886842727661133,-4.318446636199951
1748517869371386600,3.73438671875,-1.866999864578247,-3.93679141998291,-6.605686187744141
1748517869390195000,3.75319482421875,-1.189831018447876,-4.807778835296631,-6.103492259979248
1748517869409003300,3.772003173828125,-2.2259232997894287,-6.085247039794922,-4.268197536468506
1748517869427811600,3.7908115234375,-1.5846468210220337,-5.78853702545166,-4.607978343963623
1748517869446620000,3.809619873046875,-0.5222335457801819,-2.568096876144409,-2.102992057800293
1748517869465428200,3.82842822265625,-1.3381860256195068,0.8865407705307007,-3.0840492248535156
1748517869484236500,3.847236572265625,-0.7878368496894836,-4.037290096282959,-4.648656368255615
1748517869503044900,3.866044921875,-1.3310075998306274,-10.999506950378418,-7.282855033874512
1748517869521853200,3.884853271484375,-2.8217360973358154,-16.526628494262695,-7.120142936706543
1748517869540661500,3.90366162109375,-1.9387845993041992,-16.758432388305664,-7.6034932136535645
1748517869559469800,3.9224697265625,-1.1228320598602295,-11.037792205810547,-8.955437660217285
1748517869578278100,3.941278076171875,0.2024926096200943,-5.941677570343018,-10.314262390136719
1748517869597086500,3.96008642578125,-1.9316060543060303,-3.5874392986297607,-9.862018585205078
1748517869615894800,3.978894775390625,-4.087240219116211,-5.5947184562683105,-9.558130264282227
1748517869634703000,3.997703125,-2.5322046279907227,-6.496812343597412,-7.244569778442383
1748517869653511400,4.016511474609375,-2.417349100112915,-6.590132713317871,-6.115456581115723
1748517869672319700,4.03531982421875,-2.1206390857696533,-5.506184101104736,-5.385645389556885
1748517869691128000,4.054128173828125,-2.848057270050049,-4.1521453857421875,-6.742076873779297
1748517869709936400,4.072936279296875,-1.2089736461639404,-5.063511848449707,-5.67756986618042
1748517869728744700,4.09174462890625,-1.74496591091156,-7.22662353515625,-4.9190449714660645
1748517869747553000,4.110552978515625,-2.4819552898406982,-7.9489569664001465,-6.378367900848389
1748517869766361300,4.129361328125,-2.3742783069610596,-7.559226036071777,-6.950252532958984
1748517869785169700,4.148169677734375,-2.324028968811035,-7.083054065704346,-6.962216377258301
1748517869803978000,4.16697802734375,-2.575275421142578,-6.803093910217285,-6.672685146331787
1748517869822786300,4.185786376953125,-2.7116663455963135,-6.594918251037598,-6.4645094871521
1748517869841594600,4.2045947265625,-3.694817304611206,-5.723930835723877,-7.184749126434326
1748517869860403000,4.22340283203125,-1.4841482639312744,-6.463313102722168,-6.005386829376221
1748517869879211500,4.24221142578125,-2.4125633239746094,-7.126124858856201,-6.80668306350708
1748517869898019800,4.261019775390625,-2.276172637939453,-7.080661296844482,-6.835396766662598
1748517869916828200,4.279828125,-2.3575284481048584,-6.606882572174072,-6.804290294647217
1748517869935636500,4.298636474609375,-4.168596267700195,-4.779065132141113,-7.479066371917725
1748517869954444800,4.31744482421875,-2.2067806720733643,-5.4774699211120605,-6.160621166229248
1748517869973253000,4.336253173828125,-2.7930221557617188,-6.872485637664795,-6.907181739807129
1748517869992061400,4.3550615234375,-2.9389843940734863,-6.937091827392578,-7.285247802734375
1748517870010869800,4.373869873046875,-2.2163519859313965,-5.558825969696045,-6.6846489906311035
1748517870029678000,4.392677978515625,-3.005983352661133,-5.834000587463379,-6.746862411499023
1748517870048486400,4.411486328125,-3.6373894214630127,-6.666703224182129,-6.9837517738342285
1748517870067295000,4.430294921875,-3.197110176086426,-7.15723180770874,-7.165606498718262
1748517870086103300,4.449103271484375,-3.2042887210845947,-7.379764080047607,-6.93110990524292
1748517870104911600,4.46791162109375,-3.168396234512329,-7.319943428039551,-6.490830421447754
1748517870133124000,4.4961240234375,-3.467499017715454,-6.640381813049316,-6.866503715515137
1748517870151932400,4.514932373046875,-3.3430724143981934,-5.396114349365234,-6.687041759490967
1748517870170740700,4.53374072265625,-3.3454651832580566,-5.013262748718262,-6.065207004547119
1748517870189549000,4.552549072265625,-4.470091819763184,-5.573183059692383,-5.699105262756348
1748517870208357600,4.571357666015625,-4.843372344970703,-6.329315185546875,-5.971887111663818
1748517870227166000,4.590166015625,-4.326522350311279,-6.611668109893799,-6.1725850105285645
1748517870245974300,4.608974365234375,-4.056133270263672,-6.384349822998047,-6.555436611175537
1748517870264782600,4.627782470703125,-3.386143207550049,-6.202495574951172,-7.002894401550293
1748517870283591000,4.6465908203125,-3.5273196697235107,-5.872285842895508,-7.227819919586182
1748517870302399200,4.665399169921875,-3.630211114883423,-5.695217132568359,-7.345067977905273
1748517870321207600,4.68420751953125,-3.6924245357513428,-6.049354553222656,-7.354639530181885
1748517870340016000,4.70301611328125,-3.6756746768951416,-6.2790656089782715,-7.5341010093688965
1748517870358824400,4.721824462890625,-4.546662330627441,-6.733702182769775,-7.77099084854126
1748517870377632800,4.7406328125,-4.6663031578063965,-6.7672014236450195,-8.046165466308594
1748517870396441000,4.759441162109375,-4.718945503234863,-6.384349822998047,-8.005487442016602
1748517870415249400,4.77824951171875,-4.745266437530518,-5.503791332244873,-7.93370246887207
1748517870434057700,4.7970576171875,-4.565804481506348,-5.087440013885498,-7.5173516273498535
1748517870452866000,4.815865966796875,-4.470091819763184,-5.228616714477539,-7.474280834197998
1748517870471674600,4.834674560546875,-3.433999538421631,-5.4774699211120605,-7.163213729858398
1748517870490483000,4.85348291015625,-4.247559070587158,-4.558925151824951,-7.402495861053467
1748517870509291300,4.872291259765625,-3.9269211292266846,-4.814957141876221,-6.8497538566589355
1748517870528099600,4.891099609375,-4.5083770751953125,-4.276572227478027,-7.323532581329346
1748517870546908000,4.909907958984375,-5.085047245025635,-4.030111312866211,-7.493422985076904
1748517870565716200,4.92871630859375,-6.104090690612793,-3.910470485687256,-7.622635841369629
1748517870584524800,4.94752490234375,-5.374578952789307,-2.754737138748169,-6.155835151672363
1748517870603333000,4.9663330078125,-5.254937648773193,-2.84087872505188,-5.2492547035217285
1748517870622141400,4.985141357421875,-4.431806564331055,-3.40797758102417,-5.062614440917969
1748517870640949800,5.00394970703125,-4.175774574279785,-3.1663026809692383,-5.447858810424805
1748517870659758000,5.022758056640625,-4.486841678619385,-2.3814568519592285,-5.54596471786499
1748517870678566400,5.04156640625,-4.2020955085754395,-2.9772696495056152,-5.734997749328613
1748517870697374700,5.060374755859375,-4.503591537475586,-2.300100803375244,-5.837889194488525
1748517870716183000,5.07918310546875,-3.3143584728240967,-2.8911280632019043,-5.277968406677246
1748517870734991600,5.09799169921875,-3.292823076248169,-3.6711881160736084,-7.3522467613220215
1748517870753800000,5.116800048828125,-5.448756217956543,-4.59003210067749,-9.046364784240723
1748517870772608300,5.135608154296875,-8.169096946716309,-6.537490367889404,-9.881160736083984
1748517870791416600,5.15441650390625,-9.501599311828613,-7.0184478759765625,-9.594022750854492
1748517870810225000,5.173224853515625,-5.408078193664551,-4.558925151824951,-7.828418254852295
1748517870829033200,5.192033203125,-2.9341988563537598,-1.9845472574234009,-8.127521514892578
1748517870847841500,5.210841552734375,-4.230809688568115,-3.1351959705352783,-7.2661051750183105
1748517870866650000,5.229650146484375,-3.2353954315185547,-2.3264217376708984,-6.9430742263793945
1748517870885458400,5.24845849609375,-5.262115955352783,-4.460819721221924,-5.569892883300781
1748517870904266800,5.267266845703125,-5.585147380828857,-7.599903583526611,-5.648856163024902
1748517870923075000,5.286074951171875,-5.195116996765137,-10.358529090881348,-7.574779033660889
1748517870941883400,5.30488330078125,-5.269294738769531,-12.705589294433594,-8.610871315002441
1748517870960691700,5.323691650390625,-4.431806564331055,-11.6216402053833,-9.376275062561035
1748517870979500000,5.3425,-4.151846408843994,-8.429914474487305,-8.333304405212402
1748517870998308400,5.361308349609375,-3.2497522830963135,-6.7193450927734375,-7.127321243286133
1748517871017116700,5.38011669921875,-3.2282168865203857,-7.4276204109191895,-5.371288776397705
1748517871035925000,5.398925048828125,-2.991626501083374,-9.080761909484863,-4.454837322235107
1748517871054733300,5.4177333984375,-3.2952158451080322,-9.56889820098877,-4.593621253967285
1748517871073542000,5.4365419921875,-3.9723846912384033,-9.865608215332031,-4.576871395111084
1748517871092350200,5.45535009765625,-3.31675124168396,-10.336994171142578,-4.423730850219727
1748517871111158500,5.474158447265625,-2.245065927505493,-9.913464546203613,-3.9571304321289062
1748517871129966800,5.492966796875,-2.8384859561920166,-8.133204460144043,-4.079164505004883
1748517871148775200,5.511775146484375,-3.0729825496673584,-6.527919292449951,-3.555136203765869
1748517871167583500,5.53058349609375,-2.3024935722351074,-5.755037784576416,-2.8399813175201416
1748517871186391800,5.549391845703125,-2.5250260829925537,-5.714359760284424,-3.000300407409668
1748517871205200100,5.5682001953125,-3.883850336074829,-7.083054065704346,-3.055335521697998
1748517871224008400,5.587008544921875,-3.3741791248321533,-9.32722282409668,-3.5575289726257324
1748517871242816800,5.605816650390625,-2.0656042098999023,-11.181361198425293,-3.7848472595214844
1748517871261625000,5.624625,-3.092125177383423,-11.116754531860352,-4.639084815979004
1748517871280433400,5.643433349609375,-3.740280866622925,-9.265008926391602,-3.9020955562591553
1748517871299241700,5.66224169921875,-2.6111676692962646,-7.614260673522949,-3.303889751434326
1748517871318050000,5.681050048828125,-2.565704107284546,-7.10219669342041,-4.012165546417236
1748517871336858400,5.6998583984375,-2.9341988563537598,-7.47547721862793,-4.380660057067871
1748517871355666700,5.718666748046875,-3.092125177383423,-8.298309326171875,-4.158127784729004
1748517871374475000,5.73747509765625,-3.1636106967926025,-9.56650447845459,-3.6436707973480225
1748517871393283300,5.756283447265625,-2.836092948913574,-9.755537986755371,-3.8111681938171387
1748517871412091600,5.775091552734375,-2.7020950317382812,-8.724231719970703,-3.7130625247955322
1748517871430900000,5.79389990234375,-2.4771697521209717,-7.992027759552002,-3.4019956588745117
1748517871449708300,5.812708251953125,-2.6973092555999756,-7.6405816078186035,-2.4595224857330322
1748517871468516600,5.8315166015625,-2.213959217071533,-7.123732089996338,-1.1937193870544434
1748517871487325000,5.850324951171875,-0.1944168359041214,-6.384349822998047,-0.6649056077003479
1748517871506133200,5.86913330078125,2.8869404792785645,-7.063911437988281,-2.560021162033081
1748517871524941600,5.887941650390625,3.5880374908447266,-9.176474571228027,-7.450352191925049
1748517871543749600,5.90674951171875,-0.05593222752213478,-10.040284156799316,-10.17308521270752
1748517871562558000,5.925557861328125,-5.577968597412109,-9.554540634155273,-6.299404621124268
1748517871581366300,5.9443662109375,-8.896514892578125,-11.89442253112793,-2.0192432403564453
1748517871600174600,5.963174560546875,-4.403092861175537,-11.643176078796387,-0.724726140499115
1748517871618983000,5.98198291015625,0.35802608728408813,-8.578269004821777,-3.000300407409668
1748517871637791200,6.000791259765625,4.059423446655273,-7.257730007171631,-5.79481840133667
1748517871656599600,6.019599609375,1.7147564888000488,-6.678667068481445,-6.62004280090332
1748517871675408000,6.038407958984375,-2.09431791305542,-9.523433685302734,-6.046064376831055
1748517871694216200,6.05721630859375,-3.7211382389068604,-14.114662170410156,-5.093721389770508
1748517871713024300,6.076024169921875,-4.0010986328125,-13.344472885131836,-4.777868747711182
1748517871731832600,6.09483251953125,-1.965105652809143,-9.42054271697998,-3.3756744861602783
1748517871750641000,6.113640869140625,0.4226323068141937,-9.20997428894043,-1.9067806005477905
1748517871769449200,6.13244921875,1.8439689874649048,-9.872786521911621,-2.5097718238830566
1748517871788257500,6.151257568359375,2.5450658798217773,-9.198010444641113,-4.552943229675293
1748517871807065900,6.17006591796875,0.8341978192329407,-8.22413158416748,-6.065207004547119
1748517871825874200,6.188874267578125,-1.9794625043869019,-7.564011573791504,-7.629814147949219
1748517871844682200,6.20768212890625,-3.008376359939575,-8.578269004821777,-5.155934810638428
1748517871863490600,6.226490478515625,-2.6422743797302246,-10.116853713989258,-2.0120646953582764
1748517871882299000,6.245298828125,-1.1228320598602295,-9.762716293334961,-1.7440686225891113
1748517871901107200,6.264107177734375,0.9251250624656677,-7.645367622375488,-2.5863420963287354
1748517871919915500,6.28291552734375,0.7193422913551331,-6.803093910217285,-2.7275187969207764
1748517871938723600,6.3017236328125,-1.2400803565979004,-8.181060791015625,-3.6460635662078857
1748517871957532000,6.320531982421875,-2.5776681900024414,-9.482755661010742,-4.033700942993164
1748517871976340200,6.33934033203125,-3.4603207111358643,-9.475577354431152,-3.583850145339966
1748517871995148500,6.3581484375,-3.402892827987671,-9.291330337524414,-3.301496982574463
1748517872013956600,6.37695654296875,-2.14935302734375,-9.020941734313965,-3.5503506660461426
1748517872032765000,6.395764892578125,-0.6394818425178528,-8.769695281982422,-3.6221351623535156
1748517872051573200,6.4145732421875,-0.34995031356811523,-8.681160926818848,-3.5958142280578613
1748517872070381600,6.433381591796875,-0.8237292170524597,-8.599804878234863,-3.823132276535034
1748517872089189600,6.452189697265625,-1.1324033737182617,-8.630910873413086,-3.7776687145233154
1748517872107998000,6.470998046875,-1.311864972114563,-8.451449394226074,-3.3541390895843506
1748517872126806300,6.48980615234375,-1.5583257675170898,-8.331808090209961,-3.0840492248535156
1748517872145614300,6.5086142578125,-1.716252088546753,-8.568697929382324,-3.3613176345825195
1748517872164422700,6.527422607421875,-1.4195420742034912,-8.824729919433594,-3.638885021209717
1748517872183231000,6.54623095703125,-0.9625129103660583,-8.71226692199707,-3.5886356830596924
1748517872202039000,6.5650390625,-0.8668000102043152,-8.513663291931152,-3.9355950355529785
1748517872220847400,6.583847412109375,-1.2855439186096191,-8.578269004821777,-4.552943229675293
1748517872239655700,6.60265576171875,-2.022533416748047,-8.511270523071289,-4.789832592010498
1748517872258463700,6.621463623046875,-2.3096721172332764,-8.353343963623047,-4.596014022827148
1748517872277272000,6.64027197265625,-2.5154547691345215,-8.405985832214355,-4.6438703536987305
1748517872296080400,6.659080322265625,-2.7355945110321045,-8.13798999786377,-4.579264163970947
1748517872314888400,6.677888427734375,-2.0967109203338623,-7.542476177215576,-4.081557273864746
1748517872333696800,6.69669677734375,-1.2999008893966675,-7.456334590911865,-3.315854072570801
1748517872352504800,6.7155048828125,-1.5176477432250977,-7.465905666351318,-3.2273194789886475
1748517872371313200,6.734313232421875,-2.3718855381011963,-7.621439456939697,-3.07208514213562
1748517872390121500,6.75312158203125,-3.039483070373535,-9.004191398620605,-2.8998019695281982
1748517872408929500,6.771929443359375,-3.9675991535186768,-9.978070259094238,-2.54327130317688
1748517872427737900,6.79073779296875,-4.247559070587158,-10.301101684570312,-2.102992057800293
1748517872446546000,6.8095458984375,-4.170989036560059,-10.214960098266602,-2.5313072204589844
1748517872465354200,6.828354248046875,-3.931706666946411,-9.305686950683594,-3.696312665939331
1748517872484162600,6.84716259765625,-3.505784273147583,-8.764909744262695,-4.55055046081543
1748517872502970600,6.865970703125,-3.6732819080352783,-8.724231719970703,-4.859224796295166
1748517872521779000,6.884779052734375,-2.953341245651245,-8.030312538146973,-5.103292465209961
1748517872540587000,6.9035869140625,-2.534597396850586,-7.2074809074401855,-5.435894966125488
1748517872559395000,6.92239501953125,-2.678166627883911,-6.929913520812988,-5.14875602722168
1748517872578203400,6.941203369140625,-2.651845693588257,-7.1356964111328125,-4.493122577667236
1748517872597011700,6.96001171875,-3.2018957138061523,-8.085348129272461,-3.325425386428833
1748517872615819800,6.97881982421875,-3.1540393829345703,-9.016156196594238,-2.7753751277923584
1748517872634627800,6.9976279296875,-3.546462297439575,-9.032905578613281,-3.662813186645508
1748517872653436200,7.016436279296875,-4.7835516929626465,-9.461220741271973,-3.8159539699554443
1748517872672244200,7.035244140625,-5.223830699920654,-9.81535816192627,-4.404588222503662
1748517872691052500,7.054052490234375,-4.594518661499023,-9.475577354431152,-4.385445594787598
1748517872709860600,7.072860595703125,-4.59930419921875,-7.7817583084106445,-4.409373760223389
1748517872728669000,7.0916689453125,-5.738287925720215,-6.125925064086914,-4.3280181884765625
1748517872747477000,7.11047705078125,-5.970391750335693,-5.762216091156006,-4.466801643371582
1748517872766285300,7.129285400390625,-6.685546398162842,-6.32452917098999,-5.057828903198242
1748517872785093400,7.14809326171875,-6.276373863220215,-6.757630348205566,-5.330610752105713
1748517872803901400,7.1669013671875,-6.0849480628967285,-6.69780969619751,-4.835296154022217
1748517872822709800,7.185709716796875,-5.482255935668945,-6.008676528930664,-4.864010334014893
1748517872841517800,7.204517822265625,-5.625824928283691,-5.087440013885498,-4.208376884460449
1748517872860326100,7.223326171875,-6.790830612182617,-4.537389755249023,-3.9595232009887695
1748517872888538400,7.251538330078125,-8.693124771118164,-5.427220821380615,-4.024129390716553
1748517872907346400,7.270346435546875,-10.159626007080078,-6.1929240226745605,-4.079164505004883
1748517872926154500,7.289154541015625,-10.647761344909668,-7.4347991943359375,-3.428316593170166
1748517872944962800,7.307962890625,-8.324629783630371,-6.76002311706543,-3.308675527572632
1748517872963771000,7.32677099609375,-6.711867332458496,-4.700101852416992,-3.5264222621917725
1748517872982579000,7.345578857421875,-6.941578388214111,-3.297907829284668,-4.421338081359863
1748517873001387300,7.36438720703125,-6.831508636474609,-3.218944549560547,-5.155934810638428
1748517873020195300,7.3831953125,-7.417750358581543,-3.142374277114868,-5.01715087890625
1748517873039003400,7.40200341796875,-7.70967435836792,-3.0011978149414062,-3.8494534492492676
1748517873057811700,7.420811767578125,-7.310073375701904,-3.422334671020508,-2.213061809539795
1748517873076619800,7.439619873046875,-7.472784996032715,-3.1686954498291016,-3.213261604309082
1748517873095427800,7.458427734375,-8.999106407165527,-2.7355945110321045,-3.909274101257324
1748517873114236000,7.47723583984375,-8.523234367370605,-3.218944549560547,-3.7944185733795166
1748517873133044200,7.496044189453125,-7.69531774520874,-2.063211441040039,-3.4618160724639893
1748517873151852300,7.514852294921875,-8.13798999786377,-0.5656034350395203,-4.249054908752441
1748517873170660400,7.533660400390625,-9.013463973999023,-2.2953150272369385,-1.7177475690841675
1748517873189468400,7.552468505859375,-9.36042308807373,-3.015554666519165,-1.6770695447921753
1748517873208276700,7.57127685546875,-9.774381637573242,-4.810171604156494,-0.4567300081253052
1748517873227084800,7.590084716796875,-9.59492015838623,-4.099503517150879,-1.88285231590271
1748517873245892900,7.608892822265625,-9.62363338470459,-1.628016710281372,-1.827817440032959
1748517873264701000,7.627700927734375,-11.06889820098877,-1.6639090776443481,-1.1673983335494995
1748517873283509000,7.646509033203125,-10.305587768554688,-2.8911280632019043,-1.552642822265625
1748517873302317300,7.6653173828125,-8.82951545715332,-2.582453727722168,-1.9929221868515015
1748517873321125400,7.68412548828125,-7.812565803527832,-1.83619225025177,-1.5909279584884644
1748517873349337600,7.712337646484375,-6.970292568206787,-1.4533406496047974,-1.1147562265396118
1748517873368145700,7.731145751953125,-6.044270038604736,-1.4485549926757812,-1.6483557224273682
1748517873386953700,7.74995361328125,-5.348257541656494,-0.9125627279281616,-2.7203402519226074
1748517873405761800,7.76876171875,-6.709474563598633,2.2432711124420166,-3.0194430351257324
1748517873424569900,7.78756982421875,-13.143177032470703,-0.3119642436504364,0.13878370821475983
1748517873443378000,7.8063779296875,-16.63161277770996,-6.293422698974609,2.914158821105957
1748517873462186000,7.82518603515625,-13.303495407104492,-10.504491806030273,-2.167598247528076
1748517873480994000,7.843994140625,-11.17896842956543,-7.619046211242676,-6.132206439971924
1748517873499802000,7.862802001953125,-12.372687339782715,-4.762315273284912,-3.6508491039276123
1748517873528014300,7.891014404296875,-8.575876235961914,-3.951148271560669,2.012363910675049
1748517873546822400,7.909822509765625,-4.374378681182861,-1.5131611824035645,0.1818545162677765
1748517873565630500,7.92863037109375,-4.797908306121826,0.401096910238266,-1.7991034984588623
1748517873584438500,7.9474384765625,-5.939284801483154,0.07567301392555237,-1.1482558250427246
1748517873603246600,7.96624658203125,-6.752545356750488,-1.6495521068572998,0.4737788736820221
1748517873622054700,7.9850546875,-7.613961696624756,-2.4604198932647705,0.7657032608985901
1748517873640862700,8.00386279296875,-7.9968132972717285,-3.125624656677246,-0.7366902828216553
1748517873659670800,8.0226708984375,-8.72901725769043,-4.625924587249756,-1.174576759338379
1748517873678478800,8.041478759765624,-9.795916557312012,-4.724030017852783,-2.7993032932281494
1748517873697287000,8.060286865234374,-11.700603485107422,-4.056432723999023,-1.430608868598938
1748517873716095000,8.079094970703125,-9.159425735473633,-4.420141696929932,-0.47108694911003113
1748517873734903000,8.097903076171875,-7.83410120010376,-3.855435371398926,-1.6770695447921753
1748517873753711000,8.116711181640625,-10.363016128540039,-5.049154758453369,-0.31794631481170654
1748517873772519200,8.135519287109375,-8.008777618408203,-6.066104412078857,-0.4375874400138855
1748517873791327200,8.1543271484375,-8.662017822265625,-5.061119079589844,-1.1721839904785156
1748517873810135300,8.17313525390625,-9.173783302307129,-4.960919380187988,-0.7342974543571472
1748517873828943400,8.191943359375,-7.8628153800964355,-5.740680694580078,-0.21296121180057526
1748517873847751400,8.21075146484375,-8.236095428466797,-6.09960412979126,-0.2727817893028259
1748517873866559500,8.2295595703125,-8.726624488830566,-6.3173508644104,-0.4088735580444336
1748517873885367600,8.248367431640625,-8.181060791015625,-6.039783477783203,-1.002293586730957
1748517873904175600,8.267175537109376,-8.018348693847656,-5.599503993988037,-0.9616156220436096
1748517873922983700,8.285983642578126,-7.877171993255615,-5.549254894256592,-0.8324031829833984
1748517873941791500,8.30479150390625,-6.884150981903076,-5.721538066864014,-1.5693925619125366
1748517873960599600,8.323599609375,-7.247859954833984,-5.848357677459717,-1.4928221702575684
1748517873979407600,8.34240771484375,-7.489534854888916,-6.384349822998047,-1.4593226909637451
1748517873998215700,8.361215576171874,-6.838686943054199,-6.518348217010498,-1.8948163986206055
1748517874017023700,8.380023681640624,-7.171289443969727,-6.64277458190918,-1.968993902206421
1748517874035831800,8.398831787109375,-7.867600917816162,-7.343871593475342,-1.2942179441452026
1748517874054639900,8.417639892578125,-7.479963779449463,-7.647760391235352,-1.3492528200149536
1748517874073447700,8.43644775390625,-6.537191390991211,-7.2074809074401855,-2.3973093032836914
1748517874092255700,8.455255859375,-6.97268533706665,-7.051947593688965,-1.9570298194885254
1748517874111063800,8.474063720703125,-7.903493404388428,-7.353443145751953,-1.2655041217803955
1748517874129872000,8.492871826171875,-7.164111137390137,-7.609475135803223,-1.78953218460083
1748517874148680000,8.511679931640625,-6.608976364135742,-7.461120128631592,-2.205883264541626
1748517874167487700,8.53048779296875,-6.427121639251709,-7.688438415527344,-1.8732810020446777
1748517874186295800,8.5492958984375,-6.417550563812256,-7.8678998947143555,-2.2944178581237793
1748517874205103900,8.568103759765625,-6.25723123550415,-7.941778182983398,-2.2345972061157227
1748517874223912000,8.586911865234375,-6.118447303771973,-7.5448689460754395,-1.9594225883483887
1748517874242720000,8.605719970703126,-6.113661766052246,-7.707581043243408,-1.576570987701416
1748517874261527800,8.62452783203125,-5.769394397735596,-7.910671710968018,-1.9881365299224854
1748517874280336000,8.6433359375,-5.532505035400391,-7.822436332702637,-2.229811668395996
1748517874299144000,8.66214404296875,-5.740680694580078,-7.994420528411865,-2.299203395843506
1748517874317951700,8.68095166015625,-6.20219612121582,-8.528019905090332,-2.801696300506592
1748517874336759800,8.699759765625,-6.424728870391846,-8.882157325744629,-1.7751753330230713
1748517874355567900,8.71856787109375,-5.640182018280029,-8.080561637878418,-2.4308087825775146
1748517874374376000,8.7373759765625,-5.00369119644165,-7.6405816078186035,-2.4140589237213135
1748517874393183700,8.756183837890624,-5.422435283660889,-7.599903583526611,-2.5887351036071777
1748517874411991800,8.77499169921875,-5.790929794311523,-8.520841598510742,-2.1173489093780518
1748517874430800000,8.7937998046875,-5.96799898147583,-8.300702095031738,-2.904587507247925
1748517874449607700,8.812607666015625,-5.448756217956543,-8.508877754211426,-2.660519599914551
1748517874468415700,8.831415771484375,-5.2716875076293945,-8.147561073303223,-2.8710880279541016
1748517874487223800,8.850223876953125,-5.1209397315979,-8.042277336120605,-3.3062827587127686
1748517874506031600,8.869031494140625,-5.427220821380615,-8.02791976928711,-2.638984203338623
1748517874524839700,8.887839599609375,-5.132903575897217,-7.745865821838379,-2.954836845397949
1748517874543647500,8.9066474609375,-4.929513931274414,-7.312765121459961,-2.820838689804077
1748517874562455600,8.92545556640625,-4.907978534698486,-6.951448917388916,-2.883052110671997
1748517874581263600,8.944263671875,-5.293222904205322,-7.104589462280273,-2.385344982147217
1748517874600071400,8.963071533203125,-6.305087566375732,-7.767401218414307,-1.8708882331848145
1748517874618879500,8.98187939453125,-7.154539585113525,-7.984848976135254,-2.4690937995910645
1748517874637687600,9.0006875,-7.252645492553711,-8.331808090209961,-4.079164505004883
1748517874656495400,9.019495361328126,-7.551748275756836,-8.975478172302246,-3.3445677757263184
1748517874675303400,9.038303466796876,-8.161917686462402,-8.927620887756348,-3.4067811965942383
1748517874694111200,9.057111328125,-8.7505521774292,-8.413164138793945,-3.5479576587677
1748517874712919300,9.075919189453124,-8.71226692199707,-7.276872634887695,-3.2751760482788086
1748517874731727000,9.09472705078125,-7.9968132972717285,-6.559025764465332,-2.3997020721435547
1748517874750535200,9.11353515625,-7.460821151733398,-6.606882572174072,-1.7991034984588623
1748517874769343200,9.13234326171875,-7.295716285705566,-6.300601005554199,-2.1556341648101807
1748517874788151000,9.151151123046875,-7.357929706573486,-5.666502952575684,-1.3229317665100098
1748517874806959000,9.169958984375,-6.967899322509766,-5.412863731384277,-1.8014963865280151
1748517874825767000,9.188766845703125,-7.293323516845703,-5.513362407684326,-1.6794624328613281
1748517874844574700,9.20757470703125,-7.944170951843262,-5.6330037117004395,-1.7081762552261353
1748517874863382800,9.2263828125,-8.276773452758789,-5.7981085777282715,-1.1482558250427246
1748517874882190800,9.24519091796875,-8.46580696105957,-5.637789249420166,-1.6052849292755127
1748517874900998700,9.26399853515625,-8.85344409942627,-5.187938690185547,-1.5693925619125366
1748517874919806700,9.282806640625,-8.82951545715332,-4.786243438720703,-1.5550355911254883
1748517874938614500,9.301614501953125,-8.846264839172363,-4.257429599761963,-2.2010977268218994
1748517874957422300,9.32042236328125,-9.054141998291016,-4.240679740905762,-1.8254245519638062
1748517874976230400,9.33923046875,-8.47298526763916,-4.19282341003418,-1.8373886346817017
1748517874995038200,9.3580380859375,-8.367700576782227,-3.503690481185913,-2.519343137741089
1748517875013846300,9.37684619140625,-8.446663856506348,-3.0346972942352295,-2.378166675567627
1748517875032654000,9.395654052734375,-8.451449394226074,-2.960519790649414,-1.7464613914489746
1748517875051462100,9.414462158203126,-8.336593627929688,-2.984447956085205,-0.8132606148719788
1748517875070270000,9.43327001953125,-8.446663856506348,-2.7020950317382812,-1.150648593902588
1748517875089078000,9.452078125,-8.863015174865723,-2.651845693588257,-0.4734797775745392
1748517875107885800,9.4708857421875,-8.322237014770508,-2.4819552898406982,-1.150648593902588
1748517875126693600,9.489693603515626,-8.683553695678711,-2.572882652282715,-1.0118649005889893
1748517875145501700,9.508501708984374,-8.461020469665527,-2.936591625213623,-0.20099709928035736
1748517875164309500,9.5273095703125,-8.602197647094727,-3.1543383598327637,-0.15553347766399384
1748517875183117300,9.546117431640624,-7.5086774826049805,-2.448455810546875,-0.361017107963562
1748517875201925400,9.56492529296875,-7.2095746994018555,-2.027618169784546,-0.11964113265275955
1748517875220733200,9.583733154296874,-7.125825881958008,-1.7931214570999146,-0.3681955933570862
1748517875239541200,9.602541259765625,-6.690331935882568,-1.7883358001708984,-0.2560320198535919
1748517875258349000,9.62134912109375,-7.171289443969727,-1.831406593322754,-0.6002993583679199
1748517875277156900,9.640156982421875,-8.178668022155762,-2.276172637939453,-0.28953152894973755
1748517875295965000,9.65896484375,-8.922835350036621,-2.575275421142578,0.02871387079358101
1748517875314772700,9.677772705078125,-10.623833656311035,-3.5706896781921387,-0.009571290574967861
1748517875333580500,9.69658056640625,-10.195518493652344,-5.424828052520752,-2.3255245685577393
1748517875352388600,9.715388671875,-9.807881355285645,-6.061318874359131,-2.576770782470703
1748517875371196400,9.734196533203125,-10.858329772949219,-5.8387861251831055,-1.8948163986206055
1748517875390004200,9.753004150390625,-11.243574142456055,-4.905884742736816,-1.0597213506698608
1748517875408812300,9.771812255859375,-9.633204460144043,-4.183252334594727,0.24885354936122894
1748517875427620000,9.7906201171875,-7.561319351196289,-2.7355945110321045,-0.20817556977272034
1748517875446428000,9.809427978515625,-6.984649181365967,-1.8792630434036255,-0.3801597058773041
1748517875465235700,9.828235595703125,-6.975078105926514,-2.1996021270751953,-0.27756741642951965
1748517875484043800,9.847043701171875,-7.396214962005615,-3.2715866565704346,0.3852444589138031
1748517875502851600,9.8658515625,-7.747959613800049,-4.381856441497803,0.02153540402650833
1748517875521659400,9.884659423828126,-8.528019905090332,-5.283651351928711,-0.377766877412796
1748517875540467200,9.90346728515625,-8.769695281982422,-6.267101764678955,-0.6960122585296631
1748517875559275300,9.922275146484376,-8.539983749389648,-6.592525482177734,-1.3348959684371948
1748517875578083000,9.9410830078125,-8.884550094604492,-6.532704830169678,-1.119541883468628
1748517875596891000,9.959890869140626,-8.69791030883789,-6.499205589294434,-0.6864410042762756
1748517875615698700,9.97869873046875,-9.054141998291016,-6.716952323913574,-0.6960122585296631
1748517875634506500,9.997506591796874,-9.188139915466309,-7.4587273597717285,-2.426023006439209
1748517875653314600,10.016314453125,-9.597312927246094,-8.602197647094727,-1.6028920412063599
1748517875672122400,10.035122314453124,-7.929814338684082,-8.312665939331055,-3.4881372451782227
1748517875690930200,10.05393017578125,-9.319745063781738,-6.748058795928955,-0.4375874400138855
1748517875709738000,10.072738037109374,-7.652246952056885,-6.793522357940674,0.15074782073497772
1748517875728545800,10.0915458984375,-6.214160442352295,-5.092225551605225,0.2392822653055191
1748517875747353900,10.110353759765625,-5.7526445388793945,-4.118646144866943,0.8685946464538574
1748517875766161700,10.12916162109375,-5.159224510192871,-4.542175769805908,-0.2512463629245758
1748517875784969500,10.147969482421875,-6.329015731811523,-5.767001628875732,-1.1219347715377808
1748517875803777300,10.16677734375,-7.221538543701172,-7.229016304016113,-2.181955099105835
1748517875822585000,10.185585205078125,-8.453842163085938,-7.863114356994629,-2.024028778076172
1748517875841393000,10.204392822265625,-8.647661209106445,-7.829614639282227,-1.8900307416915894
1748517875860200700,10.22320068359375,-7.326822757720947,-7.2696943283081055,-2.6341986656188965
1748517875879008500,10.242008544921875,-6.805187702178955,-6.972984313964844,-2.0359928607940674
1748517875897816600,10.260816650390625,-7.039684295654297,-7.197909832000732,-1.0357930660247803
1748517875916624400,10.279624267578125,-6.814758777618408,-7.662117004394531,-0.8156534433364868
1748517875935432200,10.29843212890625,-6.585047721862793,-7.549654483795166,-1.3061820268630981
1748517875954240000,10.317239990234375,-6.903293132781982,-7.178767204284668,-2.1245274543762207
1748517875973047800,10.3360478515625,-7.726424217224121,-7.4108710289001465,-1.5813566446304321
1748517875991855600,10.354855712890625,-6.843472957611084,-7.875078201293945,-1.3755738735198975
1748517876010663400,10.373663330078125,-6.496513366699219,-7.75543737411499,-2.126920223236084
1748517876029471200,10.39247119140625,-6.26440954208374,-7.760222911834717,-1.7129619121551514
1748517876048279000,10.411279052734375,-5.635396480560303,-7.6860456466674805,-2.435594320297241
1748517876067086800,10.4300869140625,-6.240481376647949,-7.798508167266846,-2.7466611862182617
1748517876085894700,10.448894775390626,-5.671288967132568,-8.305487632751465,-2.756232500076294
1748517876104702500,10.467702392578126,-5.19033145904541,-8.097311973571777,-2.7993032932281494
1748517876123510300,10.48651025390625,-6.142375946044922,-7.870292663574219,-2.282453775405884
1748517876142318000,10.505318115234376,-5.929713726043701,-7.992027759552002,-2.5719852447509766
1748517876161126000,10.5241259765625,-5.592325687408447,-7.81765079498291,-2.749054193496704
1748517876179933700,10.54293359375,-6.20219612121582,-8.288737297058105,-1.9354944229125977
1748517876198741500,10.561741455078124,-6.39601469039917,-8.760123252868652,-1.6603198051452637
1748517876217549300,10.58054931640625,-5.834000587463379,-8.322237014770508,-2.064706802368164
1748517876236357000,10.599357177734374,-6.86261510848999,-8.915657043457031,-1.8780666589736938
1748517876255165000,10.6181650390625,-9.013463973999023,-10.53081226348877,-1.734497308731079
1748517876273972700,10.63697265625,-7.379465103149414,-11.1406831741333,-5.0841498374938965
1748517876292780500,10.655780517578124,-5.934499263763428,-10.595418930053711,-3.531208038330078
1748517876311588400,10.67458837890625,-4.345664978027344,-9.604789733886719,-3.315854072570801
1748517876330396200,10.693396240234375,-3.8168511390686035,-7.863114356994629,-2.000100612640381
1748517876349204000,10.712203857421875,-3.032304525375366,-5.07308292388916,-1.0668997764587402
1748517876368011800,10.73101171875,-3.0131618976593018,-3.692723512649536,-0.3155534863471985
1748517876386819600,10.749819580078125,-3.5177483558654785,-3.3338000774383545,-1.3109676837921143
1748517876405627100,10.768627197265625,-4.005884170532227,-3.9535412788391113,-1.7464613914489746
1748517876424435000,10.78743505859375,-5.175974369049072,-5.1783671379089355,-0.789332389831543
1748517876443242800,10.80624267578125,-6.664011001586914,-6.176174163818359,-0.8994022011756897
1748517876462050600,10.825050537109375,-8.030312538146973,-6.8772711753845215,-2.284846544265747
1748517876480858400,10.8438583984375,-9.066105842590332,-7.829614639282227,-2.0814566612243652
1748517876499666200,10.862666259765625,-8.669196128845215,-8.35573673248291,-1.3348959684371948
1748517876518474000,10.881473876953125,-7.802994728088379,-8.166703224182129,-1.8972092866897583
1748517876537281800,10.90028173828125,-8.0350980758667,-8.204988479614258,-2.009671926498413
1748517876556089300,10.91908935546875,-8.274380683898926,-7.984848976135254,-1.7679967880249023
1748517876574897200,10.937897216796875,-7.977670669555664,-7.348657608032227,-1.0429716110229492
1748517876593705000,10.956705078125,-7.17368221282959,-6.944270610809326,0.14356936514377594
1748517876612512800,10.9755126953125,-6.0538411140441895,-8.025527000427246,-0.8826524615287781
1748517876631320600,10.994320556640625,-5.286044120788574,-9.169296264648438,-1.4688940048217773
1748517876650128400,11.01312841796875,-5.32911491394043,-9.087940216064453,-1.0310074090957642
1748517876668936000,11.03193603515625,-5.499005317687988,-8.606983184814453,-2.3901307582855225
1748517876687743700,11.05074365234375,-6.159125328063965,-8.941978454589844,-2.464308261871338
1748517876706551600,11.069551513671875,-7.09711217880249,-8.662017822265625,-2.985943555831909
1748517876725359400,11.088359375,-7.939385414123535,-8.365307807922363,-3.624528169631958
1748517876744167200,11.107167236328126,-8.250452041625977,-7.698009490966797,-3.1462626457214355
1748517876762974700,11.125974609375,-7.369893550872803,-6.786344051361084,-2.4451656341552734
1748517876781782500,11.144782470703126,-6.403193473815918,-6.3963141441345215,-1.0860424041748047
1748517876800590300,11.16359033203125,-5.972784519195557,-6.43459939956665,-1.0860424041748047
1748517876819398100,11.182398193359376,-6.211767673492432,-6.673881530761719,-0.724726140499115
1748517876838206000,11.2012060546875,-6.955935478210449,-6.716952323913574,-1.2032907009124756
1748517876857013500,11.220013427734376,-7.063612461090088,-6.5542402267456055,-1.179362416267395
1748517876875821300,11.2388212890625,-6.668796539306641,-6.465705871582031,-0.6960122585296631
1748517876894629000,11.257629150390626,-7.077969551086426,-6.996912479400635,-0.7965108156204224
1748517876913436700,11.276436767578126,-8.11406135559082,-7.47547721862793,-0.35862427949905396
1748517876932244500,11.295244384765626,-8.559126853942871,-7.635796070098877,-0.913759171962738
1748517876951052300,11.31405224609375,-8.310273170471191,-7.5687971115112305,-1.246361494064331
1748517876979263700,11.342263671875,-7.606783390045166,-6.214459419250488,-1.4976078271865845
1748517876998071600,11.361071533203125,-6.989434719085693,-5.915356636047363,-1.186540961265564
1748517877016879400,11.37987939453125,-6.673582553863525,-5.769394397735596,-1.9450657367706299
1748517877035687000,11.39868701171875,-7.202396392822266,-5.37697172164917,-0.8826524615287781
1748517877054494700,11.41749462890625,-7.479963779449463,-5.549254894256592,-1.3540384769439697
1748517877073302500,11.436302490234375,-8.066205024719238,-5.185545921325684,-1.6842480897903442
1748517877092110000,11.455110107421875,-8.102097511291504,-5.793322563171387,-0.6002993583679199
1748517877110918000,11.47391796875,-7.802994728088379,-5.853143215179443,-1.1482558250427246
1748517877129725700,11.4927255859375,-7.728816986083984,-5.104189872741699,-0.5883352756500244
1748517877148533200,11.511533203125,-8.437092781066895,-4.058825492858887,-0.5045864582061768
1748517877167341000,11.530341064453125,-8.358129501342773,-4.149752616882324,-0.1052841991186142
1748517877186148900,11.54914892578125,-8.080561637878418,-4.405784606933594,-1.0549356937408447
1748517877204956400,11.567956298828125,-8.080561637878418,-3.3744781017303467,-1.516750454902649
1748517877223764200,11.58676416015625,-7.8077802658081055,-3.8865420818328857,0.20099709928035736
1748517877242572000,11.605572021484376,-7.29810905456543,-3.589832067489624,-0.8419744968414307
1748517877261379600,11.624379638671876,-8.532805442810059,-1.0106685161590576,-2.9739794731140137
1748517877280187400,11.6431875,-10.506585121154785,2.671586513519287,-3.586242914199829
1748517877298995000,11.661994873046876,-12.480364799499512,-2.7284159660339355,4.191926002502441
1748517877317802800,11.680802734375,-10.841580390930176,-10.193424224853516,-0.11006984114646912
1748517877336610600,11.699610595703126,-11.501998901367188,-9.399007797241211,-4.253840446472168
1748517877355418000,11.718418212890626,-13.382458686828613,-6.006283760070801,2.251646041870117
1748517877374226000,11.737225830078126,-11.183753967285156,-5.12811803817749,0.20817556977272034
1748517877393033500,11.756033447265626,-11.695817947387695,-4.408177375793457,0.19621145725250244
1748517877411841300,11.77484130859375,-9.987342834472656,-4.147359848022461,0.8590233325958252
1748517877430648800,11.79364892578125,-8.798408508300781,-4.250251293182373,0.3900300860404968
1748517877449456600,11.81245654296875,-8.776873588562012,-3.3672995567321777,0.9092726111412048
1748517877468264400,11.831264404296874,-6.884150981903076,-2.87198543548584,-0.33469605445861816
1748517877487072000,11.850072021484374,-7.113861560821533,-3.0897321701049805,-2.1723837852478027
1748517877505879800,11.8688798828125,-7.259823799133301,-2.3718855381011963,-3.1845479011535645
1748517877524687400,11.887687255859374,-7.3746795654296875,-3.1304101943969727,-3.0338001251220703
1748517877543495200,11.9064951171875,-7.69531774520874,-3.3720853328704834,-2.7442684173583984
1748517877562302700,11.925302734375,-8.673981666564941,-3.163909673690796,-3.0361928939819336
1748517877581110500,11.944110595703124,-9.257532119750977,-2.006082773208618,-2.1867408752441406
1748517877599918000,11.96291796875,-9.597312927246094,-3.1519455909729004,-0.6601199507713318
1748517877618726000,11.981725830078124,-9.302995681762695,-2.9246275424957275,-1.6651054620742798
1748517877646937300,12.009937255859375,-8.996713638305664,-0.6134598851203918,-1.643570065498352
1748517877665745200,12.0287451171875,-9.123533248901367,-0.7139584422111511,-0.18903298676013947
1748517877684552700,12.047552734375,-8.965906143188477,-0.2880360186100006,0.14117653667926788
1748517877703360500,12.066360595703125,-8.944371223449707,-0.4938187599182129,0.41874396800994873
1748517877722168000,12.08516796875,-9.25992488861084,-1.3145569562911987,0.4713860750198364
1748517877740975600,12.1039755859375,-10.894222259521484,-1.1781660318374634,0.6628118753433228
1748517877759783400,12.122783447265626,-9.853344917297363,-2.1924238204956055,1.3280165195465088
1748517877778591000,12.141591064453126,-9.252745628356934,-1.7691932916641235,0.4666004180908203
1748517877797398800,12.160398681640626,-9.51595687866211,-1.9821544885635376,1.275374412536621
1748517877816206300,12.179206298828126,-7.814958572387695,-2.6422743797302246,0.7824530005455017
1748517877835014100,12.19801416015625,-7.936992645263672,-1.3719847202301025,-0.4663013219833374
1748517877853821700,12.21682177734375,-8.011170387268066,-0.9484550952911377,0.2919243574142456
1748517877872629200,12.235629150390626,-7.810173034667969,-1.2092727422714233,0.5335994362831116
1748517877891437000,12.25443701171875,-7.917850017547607,-1.4318052530288696,-0.22492532432079315
1748517877910244600,12.27324462890625,-8.15234661102295,-1.6663018465042114,-1.0118649005889893
1748517877929052400,12.292052490234376,-9.185747146606445,-1.5849459171295166,-0.8970093727111816
1748517877947860000,12.31085986328125,-8.793622970581055,-1.8529419898986816,-0.31316065788269043
1748517877966667500,12.32966748046875,-9.396315574645996,-2.2019951343536377,0.29431718587875366
1748517877985475300,12.348475341796876,-9.9442720413208,-3.448655605316162,0.7226324677467346
1748517878004283000,12.367282958984376,-9.970592498779297,-4.4751763343811035,0.3924229145050049
1748517878023090700,12.386090576171876,-10.714760780334473,-4.829314231872559,-0.016749758273363113
1748517878041898200,12.404898193359376,-11.236395835876465,-4.9154558181762695,-0.20578274130821228
1748517878060705800,12.423705810546876,-11.679068565368652,-5.566004753112793,0.035892341285943985
1748517878079513600,12.442513671875,-10.482656478881836,-6.056533336639404,-0.5117649435997009
1748517878098321200,12.461321044921876,-10.087841033935547,-6.707380771636963,-0.547657310962677
1748517878117128700,12.480128662109376,-8.659625053405762,-6.774380207061768,-0.8611170649528503
1748517878135936500,12.4989365234375,-7.733603000640869,-5.707180976867676,-1.5622141361236572
1748517878154744000,12.517744140625,-7.408178806304932,-4.79102897644043,-1.612463355064392
1748517878173551600,12.536551513671874,-6.975078105926514,-4.374678134918213,-1.5047863721847534
1748517878192359400,12.555359375,-7.616354465484619,-3.9535412788391113,-1.918744683265686
1748517878211167000,12.5741669921875,-7.0301127433776855,-4.429712772369385,-1.7368900775909424
1748517878229974500,12.592974609375,-6.314659118652344,-4.9393839836120605,-1.8373886346817017
1748517878248782300,12.6117822265625,-6.206982135772705,-5.0587263107299805,-1.9331015348434448
1748517878267590000,12.63058984375,-5.917749404907227,-5.156831741333008,-1.9713867902755737
1748517878286397400,12.6493974609375,-5.834000587463379,-5.1783671379089355,-2.0216360092163086
1748517878305205200,12.668205322265624,-5.307579517364502,-5.3578290939331055,-2.024028778076172
1748517878333416700,12.696416748046875,-6.025426387786865,-6.9945197105407715,-2.983550786972046
1748517878352224300,12.715224365234375,-6.941578388214111,-8.530412673950195,-4.332803726196289
1748517878371031800,12.73403173828125,-6.685546398162842,-9.722038269042969,-5.103292465209961
1748517878389839400,12.75283935546875,-6.03739070892334,-9.20997428894043,-5.088935375213623
1748517878408647200,12.771647216796875,-5.743073463439941,-7.494619846343994,-4.457230567932129
1748517878427454700,12.790454833984375,-5.764608860015869,-6.886842727661133,-3.3134610652923584
1748517878446262300,12.80926220703125,-5.140082359313965,-8.190631866455078,-2.347059965133667
1748517878465069800,12.82806982421875,-5.228616714477539,-8.678768157958984,-2.1293129920959473
1748517878483877600,12.846877685546875,-5.0587263107299805,-8.654839515686035,-2.0934207439422607
1748517878502685200,12.865685302734375,-5.006083965301514,-8.360522270202637,-2.7753751277923584
1748517878521492700,12.88449267578125,-5.85075044631958,-8.185846328735352,-4.411766529083252
1748517878540300300,12.90330029296875,-6.6113691329956055,-8.824729919433594,-5.488536834716797
1748517878559107800,12.92210791015625,-7.341179847717285,-9.736394882202148,-5.785246849060059
1748517878577915600,12.94091552734375,-6.374479293823242,-9.571290969848633,-4.813760757446289
1748517878596723200,12.95972314453125,-5.6808600425720215,-8.372486114501953,-3.055335521697998
1748517878615530800,12.97853076171875,-4.924727916717529,-7.525726318359375,-1.8397815227508545
1748517878634338300,12.99733837890625,-4.59930419921875,-7.473084449768066,-2.246561288833618
1748517878653145900,13.016145751953125,-6.350551128387451,-8.46580696105957,-2.385344982147217
1748517878671953700,13.03495361328125,-6.951149940490723,-8.980263710021973,-3.0505497455596924
1748517878690761200,13.05376123046875,-6.534798622131348,-7.941778182983398,-4.799404144287109
1748517878709568800,13.07256884765625,-6.190232276916504,-7.162017345428467,-2.7681965827941895
1748517878737780200,13.1007802734375,-1.740180253982544,-5.231009483337402,-2.591127872467041
1748517878756587800,13.119587890625,-1.7258232831954956,-7.272087097167969,-3.093620538711548
1748517878775395300,13.138395263671875,-4.309772491455078,-9.332008361816406,-1.9331015348434448
1748517878794203000,13.157202880859375,-7.379465103149414,-9.564111709594727,-2.9572296142578125
1748517878813010400,13.176010498046875,-9.434600830078125,-10.325029373168945,-5.469394207000732
1748517878831818200,13.194818359375,-10.839187622070312,-10.858329772949219,-3.576671600341797
1748517878850625800,13.213625732421875,-8.37727165222168,-10.13599681854248,-2.2561326026916504
1748517878869433300,13.232433349609375,-5.467898845672607,-8.547162055969238,-2.7275187969207764
1748517878888241000,13.251240966796875,-3.8264224529266357,-7.453941822052002,-1.5669996738433838
1748517878907048400,13.27004833984375,-4.549055099487305,-6.7911295890808105,-1.0836495161056519
1748517878925856000,13.28885595703125,-6.013462543487549,-6.975377082824707,-1.7440686225891113
1748517878944663600,13.30766357421875,-7.812565803527832,-6.724130630493164,-3.4331023693084717
1748517878963471000,13.32647119140625,-8.61894702911377,-7.279265403747559,-1.552642822265625
1748517878982279000,13.34527880859375,-6.8865437507629395,-6.5542402267456055,-3.390031576156616
1748517879001086500,13.36408642578125,-5.302793979644775,-6.453741550445557,-2.0383858680725098
1748517879019894000,13.38289404296875,-5.451148986816406,-5.807679653167725,-1.8996020555496216
1748517879038701600,13.40170166015625,-5.518147945404053,-5.341079235076904,-1.4401801824569702
1748517879057509000,13.420509033203125,-5.774179935455322,-5.7119669914245605,-2.1053848266601562
1748517879076316700,13.439316650390625,-6.943971157073975,-7.0184478759765625,-2.016850471496582
1748517879095124200,13.458124267578125,-7.915457248687744,-7.803293704986572,-1.7368900775909424
1748517879113931800,13.476931884765625,-8.798408508300781,-7.678866863250732,-1.7632111310958862
1748517879132739300,13.4957392578125,-9.525527954101562,-7.224230766296387,-0.9233304262161255
1748517879151547000,13.514546875,-9.585348129272461,-6.626025199890137,-0.8060821294784546
1748517879170354400,13.5333544921875,-9.14985466003418,-6.355636119842529,-1.8134604692459106
1748517879189162000,13.552161865234375,-9.078069686889648,-6.336493492126465,-1.0166505575180054
1748517879207969500,13.570969482421875,-8.520841598510742,-6.0038909912109375,-0.9951151013374329
1748517879226777000,13.589777099609375,-8.327022552490234,-5.274080276489258,-1.9666011333465576
1748517879245584600,13.608584716796875,-8.85344409942627,-4.685744762420654,-0.7319046258926392
1748517879264392200,13.62739208984375,-7.999206066131592,-5.137689113616943,-1.7488542795181274
1748517879283199700,13.64619970703125,-7.76470947265625,-5.2405805587768555,-1.1291131973266602
1748517879302007300,13.66500732421875,-7.094718933105469,-4.491926193237305,-2.1005992889404297
1748517879320814800,13.68381494140625,-7.6043901443481445,-3.47019100189209,-1.449751377105713
1748517879339622400,13.702622314453125,-7.338787078857422,-4.302893161773682,-1.272682547569275
1748517879358430000,13.721429931640625,-9.015856742858887,-4.221537113189697,-1.8421742916107178
1748517879377237500,13.740237548828125,-8.635697364807129,-4.664209365844727,-1.4712867736816406
1748517879396045000,13.759045166015625,-7.901100158691406,-4.7503509521484375,-1.7943178415298462
1748517879414852600,13.7778525390625,-7.726424217224121,-3.613760471343994,-1.4712867736816406
1748517879433660200,13.79666015625,-8.638090133666992,-3.1998021602630615,-0.9448658227920532
1748517879452467700,13.8154677734375,-9.539884567260742,-3.37687087059021,-2.0144574642181396
1748517879471275300,13.834275146484375,-9.793523788452148,-3.2548370361328125,-1.1123634576797485
1748517879490082800,13.853082763671875,-9.338887214660645,-4.092324733734131,-1.8421742916107178
1748517879508890400,13.871890380859375,-10.157233238220215,-4.575675010681152,-2.581556558609009
1748517879537101600,13.9001015625,-9.661918640136719,-3.424727439880371,-1.026221752166748
1748517879555909000,13.9189091796875,-9.527920722961426,-3.1208388805389404,-1.308574914932251
1748517879574716700,13.937716552734376,-8.303094863891602,-1.9199410676956177,-0.9233304262161255
1748517879593524200,13.956524169921876,-8.989535331726074,-2.659024238586426,-1.430608868598938
1748517879612331800,13.975331787109376,-8.047062873840332,-2.723630428314209,-2.2561326026916504
1748517879631139300,13.994139404296876,-7.712067604064941,-3.1351959705352783,-1.301396369934082
1748517879649947000,14.01294677734375,-5.790929794311523,-1.8768702745437622,-3.069692373275757
1748517879668754400,14.03175439453125,-8.94676399230957,0.7217351198196411,-2.772982358932495
1748517879687562000,14.05056201171875,-9.135498046875,-1.2547364234924316,0.43549370765686035
1748517879706369500,14.06936962890625,-7.592426300048828,-2.4149563312530518,-0.36340993642807007
1748517879725177000,14.088177001953126,-8.504091262817383,-0.620638370513916,-1.0836495161056519
1748517879743984400,14.106984375,-10.7195463180542,-2.0108683109283447,-0.27038896083831787
1748517879762792000,14.1257919921875,-11.963515281677246,-2.627917528152466,0.0933200865983963
1748517879781599500,14.144599609375,-9.293423652648926,-1.8481563329696655,-0.40408793091773987
1748517879800407000,14.163406982421876,-6.640082836151123,-0.6469594240188599,-0.6457630395889282
1748517879819214600,14.182214599609376,-9.216854095458984,-2.520240545272827,0.4785645306110382
1748517879838022100,14.201022216796876,-9.221639633178711,-2.1924238204956055,-1.5693925619125366
1748517879856829700,14.21982958984375,-9.518349647521973,-2.0347964763641357,0.31824541091918945
1748517879875637000,14.238636962890626,-7.314858913421631,-0.6900302171707153,-1.277468204498291
1748517879894444500,14.257444580078126,-10.2385892868042,-0.89581298828125,-0.11006984114646912
1748517879913252000,14.276252197265626,-8.647661209106445,-3.824328899383545,1.0600204467773438
1748517879932059600,14.2950595703125,-7.788637638092041,-2.644667148590088,0.05024927482008934
1748517879950867200,14.3138671875,-8.788837432861328,-2.733201742172241,0.3924229145050049
1748517879969674800,14.3326748046875,-7.975277900695801,-3.336193084716797,-0.4016951024532318
1748517879988482000,14.35148193359375,-9.98973560333252,-3.558725595474243,-2.0742781162261963
1748517880007289600,14.37028955078125,-10.042377471923828,-4.374678134918213,-0.7031907439231873
1748517880026097200,14.38909716796875,-7.814958572387695,-4.680959224700928,-1.1482558250427246
1748517880044904700,14.40790478515625,-9.693025588989258,-5.171188831329346,-0.6984050869941711
1748517880063712300,14.426712158203125,-7.75753116607666,-5.8387861251831055,-2.253739833831787
1748517880082519600,14.44551953125,-10.32473087310791,-6.109175205230713,-0.11485548317432404
1748517880101327000,14.4643271484375,-5.204688549041748,-5.642574787139893,-1.7488542795181274
1748517880129538300,14.492538330078125,-9.295816421508789,-4.300500392913818,-1.954637050628662
1748517880148345900,14.511345947265625,-7.5326056480407715,-5.266901969909668,-1.6268203258514404
1748517880167153400,14.5301533203125,-8.09252643585205,-6.480062961578369,-1.8900307416915894
1748517880185961000,14.5489609375,-6.850651264190674,-7.760222911834717,-2.095813512802124
1748517880204768300,14.567768310546874,-6.245266914367676,-7.611867904663086,-2.883052110671997
1748517880223575800,14.586575927734375,-8.260024070739746,-6.82223653793335,-2.763411045074463
1748517880242383400,14.60538330078125,-7.5804619789123535,-7.178767204284668,-2.213061809539795
1748517880261191000,14.62419091796875,-6.8554368019104,-7.836793422698975,-2.796910524368286
1748517880279998200,14.642998291015624,-6.812366008758545,-8.965906143188477,-3.727419376373291
1748517880298805800,14.6618056640625,-6.159125328063965,-9.903892517089844,-3.5575289726257324
1748517880317613300,14.68061328125,-5.767001628875732,-8.437092781066895,-2.890230655670166
1748517880336420900,14.6994208984375,-5.793322563171387,-6.922735214233398,-3.799204111099243
1748517880355228200,14.718228271484374,-6.704689025878906,-7.851150035858154,-3.2273194789886475
1748517880374035700,14.73703564453125,-6.206982135772705,-9.973284721374512,-4.526622295379639
1748517880392843300,14.75584326171875,-7.09711217880249,-9.772287368774414,-4.335196495056152
1748517880411650800,14.77465087890625,-6.245266914367676,-8.551948547363281,-3.4402806758880615
1748517880430458000,14.7934580078125,-4.771587371826172,-8.24566650390625,-2.2800607681274414
1748517880449265700,14.812265625,-5.049154758453369,-7.714759349822998,-2.976372241973877
1748517880468073200,14.8310732421875,-4.010669708251953,-6.810272216796875,-4.773082733154297
1748517880486880800,14.849880859375,-2.874378204345703,-6.501598358154297,-3.4785659313201904
1748517880505688000,14.86868798828125,-2.4771697521209717,-7.463512897491455,-2.071885347366333
1748517880524495600,14.88749560546875,-5.041976451873779,-8.312665939331055,0.15074782073497772
1748517880543303200,14.90630322265625,-7.463213920593262,-7.980063438415527,-0.5883352756500244
1748517880562110500,14.9251103515625,-8.298309326171875,-9.827322959899902,-2.6916263103485107
1748517880580918000,14.94391796875,-7.554141044616699,-10.805987358093262,-4.158127784729004
1748517880599725600,14.9627255859375,-6.697510719299316,-10.985149383544922,-2.5145576000213623
1748517880618532900,14.981532958984374,-7.83410120010376,-9.090332984924316,-2.1005992889404297
1748517880637340400,15.00034033203125,-7.317251682281494,-9.020941734313965,-2.7897322177886963
1748517880656148000,15.01914794921875,-5.989534378051758,-8.291130065917969,-4.263411521911621
1748517880674955300,15.037955322265624,-6.393621921539307,-7.451549053192139,-4.098307132720947
1748517880693762800,15.0567626953125,-6.948757171630859,-6.4920268058776855,-2.770589590072632
1748517880712570400,15.0755703125,-5.755037784576416,-5.226223945617676,-3.301496982574463
1748517880731377700,15.094377685546876,-5.66411018371582,-4.360321044921875,-3.356531858444214
1748517880750185200,15.113185302734376,-6.104090690612793,-5.805286884307861,-0.6625127792358398
1748517880768992800,15.13199267578125,-6.594619274139404,-6.616453647613525,0.8279166221618652
1748517880787800000,15.150800048828126,-7.76470947265625,-6.726523399353027,-0.275174617767334
1748517880806607600,15.169607666015626,-9.453742980957031,-6.76002311706543,-0.06699903309345245
1748517880825415000,15.188414794921876,-9.413064956665039,-6.661917209625244,-0.6002993583679199
1748517880844222500,15.207222412109376,-8.657232284545898,-6.75284481048584,-2.062314033508301
1748517880863029800,15.22602978515625,-9.147461891174316,-7.379764080047607,-1.3157533407211304
1748517880881837300,15.24483740234375,-8.752944946289062,-7.298408031463623,-3.2344980239868164
1748517880900644900,15.263644775390626,-9.590133666992188,-7.571189880371094,-1.3851451873779297
1748517880919452200,15.2824521484375,-10.506585121154785,-7.987242221832275,-0.6840481758117676
1748517880938259700,15.301259765625,-11.674283027648926,-9.162117958068848,-0.4016951024532318
1748517880957067000,15.32006689453125,-11.796316146850586,-9.281759262084961,-2.308774709701538
1748517880975874600,15.33887451171875,-11.229217529296875,-9.4061861038208,-1.3660026788711548
1748517880994682000,15.35768212890625,-7.8317084312438965,-9.193224906921387,-1.832603096961975
1748517881013489400,15.376489501953126,-7.317251682281494,-4.621138572692871,-4.172484397888184
1748517881032297000,15.395296875,-5.85792875289917,-2.6039891242980957,-0.8539385795593262
1748517881051104300,15.414104248046876,-5.12811803817749,-4.240679740905762,-0.1818545162677765
1748517881069911800,15.432911865234376,-6.695117950439453,-3.2476584911346436,-2.794517755508423
1748517881088719400,15.45171923828125,-5.960820198059082,0.2072782665491104,-3.64127779006958
1748517881107526700,15.470526611328125,-4.166203498840332,1.022931694984436,-0.8276175260543823
1748517881126334200,15.489334228515625,-6.302694797515869,-1.3648061752319336,-0.12681959569454193
1748517881145141500,15.5081416015625,-4.6974101066589355,-3.7740795612335205,-3.4498519897460938
1748517881163949000,15.526948974609375,-7.326822757720947,-1.3408780097961426,-6.476473808288574
1748517881182756400,15.54575634765625,-10.10698413848877,-2.1302103996276855,-2.976372241973877
1748517881201564000,15.56456396484375,-10.843973159790039,-3.9008991718292236,-0.7319046258926392
1748517881220371200,15.58337109375,-9.659525871276855,-4.149752616882324,-0.9352945685386658
1748517881239178800,15.6021787109375,-9.654740333557129,-3.477369546890259,-1.4377872943878174
1748517881257986300,15.620986328125,-11.348858833312988,-3.6544384956359863,-1.2032907009124756
1748517881276793600,15.639793701171875,-11.229217529296875,-3.692723512649536,-0.19621145725250244
1748517881295601200,15.65860107421875,-10.717153549194336,-2.163709878921509,0.016749758273363113
1748517881314408400,15.677408447265625,-10.693224906921387,-0.8982058167457581,-0.6290132403373718
1748517881333216000,15.696216064453125,-9.566205978393555,-1.5442678928375244,-0.2799602448940277
1748517881352023300,15.715023193359375,-8.874979019165039,-0.5823532342910767,-0.39930227398872375
1748517881370830800,15.733830810546875,-8.319844245910645,-0.831206738948822,0.6436693072319031
1748517881389638100,15.75263818359375,-6.867401123046875,-1.7596219778060913,0.2225325107574463
1748517881408445700,15.77144580078125,-6.7070817947387695,-1.9390836954116821,-0.7223333120346069
1748517881427253000,15.7902529296875,-7.970492362976074,-0.5847460627555847,-1.5335001945495605
1748517881446060500,15.809060546875,-7.795815944671631,-0.6876373887062073,-0.5500500798225403
1748517881464867800,15.827867919921875,-7.04925537109375,-3.683152198791504,-0.038285162299871445
1748517881483675400,15.84667529296875,-6.97986364364624,-1.9462621212005615,-1.7392829656600952
1748517881502482700,15.865482666015625,-7.561319351196289,-0.6565307378768921,-0.9807581901550293
1748517881521290200,15.884290283203125,-8.176275253295898,-3.541975736618042,0.7322037220001221
1748517881540097500,15.90309765625,-7.326822757720947,-4.927420139312744,-0.4734797775745392
1748517881558905000,15.921905029296875,-6.111268997192383,-3.8530426025390625,-1.607677698135376
1748517881577712400,15.94071240234375,-5.642574787139893,-3.6472599506378174,-0.6098706722259521
1748517881596520000,15.95952001953125,-6.041877269744873,-3.6711881160736084,-0.2988037168979645
1748517881615327200,15.9783271484375,-8.09252643585205,-3.927220106124878,-0.7630113363265991
1748517881634134800,15.997134765625,-11.607283592224121,-4.929812908172607,-2.308774709701538
1748517881652942000,16.015942138671875,-12.56411361694336,-7.63101053237915,-3.246462106704712
1748517881671749600,16.03474951171875,-10.140482902526855,-9.91107177734375,-2.244168519973755
1748517881690557000,16.053556884765626,-8.169096946716309,-7.339086055755615,-1.4952150583267212
1748517881709364500,16.072364501953125,-9.271888732910156,-5.022833824157715,0.31824541091918945
1748517881728171800,16.091171875,-8.484949111938477,-5.5468621253967285,0.19381862878799438
1748517881746979300,16.109979248046876,-7.927421569824219,-7.004090785980225,-2.906980514526367
1748517881765786600,16.12878662109375,-10.006484985351562,-8.57348346710205,-3.995415687561035
1748517881784594200,16.14759423828125,-8.755337715148926,-10.351350784301758,-1.5287145376205444
1748517881803401500,16.1664013671875,-6.589833736419678,-8.516056060791016,-2.7849464416503906
1748517881822209000,16.185208984375,-6.678368091583252,-7.346264839172363,-3.744169235229492
1748517881841016300,16.204016357421875,-6.039783477783203,-8.477770805358887,-4.452444553375244
1748517881859823900,16.222823974609376,-7.786244869232178,-10.332208633422852,-4.722833633422852
1748517881878631200,16.241631103515626,-5.891428470611572,-10.490134239196777,-3.7489547729492188
1748517881897438700,16.260438720703124,-5.697609901428223,-6.669095993041992,-2.7993032932281494
1748517881916246000,16.27924609375,-5.958427429199219,-4.604389190673828,-1.6627126932144165
1748517881935053600,16.298053466796876,-5.317151069641113,-5.764608860015869,-1.8541384935379028
1748517881953860900,16.31686083984375,-6.367300987243652,-8.764909744262695,-3.2608189582824707
1748517881972668400,16.33566845703125,-8.068597793579102,-11.590534210205078,-2.323131799697876
1748517881991475700,16.354475830078126,-5.372185707092285,-9.891928672790527,-0.724726140499115
1748517882010283300,16.373283203125,-2.927020311355591,-5.778965950012207,-1.4090734720230103
1748517882038494500,16.401494384765623,-7.357929706573486,-7.750651836395264,-7.120142936706543
1748517882057301800,16.4203017578125,-10.616655349731445,-12.961621284484863,-8.060522079467773
1748517882076109300,16.439109375,-9.920343399047852,-16.22752571105957,-1.9666011333465576
1748517882094916600,16.45791650390625,-6.9344000816345215,-8.023134231567383,-0.7079764008522034
1748517882113724200,16.47672412109375,-2.9246275424957275,-3.0753753185272217,-2.0527427196502686
1748517882132531500,16.495531494140625,-2.4532413482666016,-5.72632360458374,-0.47108694911003113
1748517882151339000,16.514339111328123,-6.465406894683838,-9.475577354431152,0.2799602448940277
1748517882170146300,16.533146240234377,-11.109576225280762,-10.843973159790039,-0.5285146832466125
1748517882188953900,16.551953857421875,-13.057034492492676,-9.401400566101074,-1.791925072669983
1748517882207761200,16.57076123046875,-10.504192352294922,-7.75543737411499,-1.466501235961914
1748517882226568700,16.589568603515627,-5.613861083984375,-7.489833831787109,0.32542386651039124
1748517882245376300,16.608376220703125,-3.931706666946411,-7.786543846130371,1.1102696657180786
1748517882264183600,16.62718359375,-5.659324645996094,-8.817551612854004,0.11485548317432404
1748517882282991000,16.6459912109375,-9.104391098022461,-9.492327690124512,-1.6722838878631592
1748517882301798400,16.66479833984375,-10.640583038330078,-10.480563163757324,-2.5025932788848877
1748517882320606000,16.68360595703125,-8.575876235961914,-10.12881851196289,-3.1845479011535645
1748517882339413200,16.702413330078127,-6.589833736419678,-8.030312538146973,-4.244269371032715
1748517882358220800,16.721220703125,-6.472585201263428,-5.317151069641113,-3.9260237216949463
1748517882377028000,16.740028076171875,-6.393621921539307,-3.7836508750915527,-1.8637096881866455
1748517882395835600,16.758835693359377,-5.900999546051025,-3.7094733715057373,-0.9352945685386658
1748517882414643200,16.777643310546875,-7.865208148956299,-3.273979663848877,-1.3755738735198975
1748517882433450500,16.796450439453125,-6.5252275466918945,-4.752744197845459,0.6628118753433228
1748517882452258000,16.815258056640626,-6.343372821807861,-7.848757266998291,1.3112667798995972
1748517882471065300,16.8340654296875,-8.513663291931152,-7.518548011779785,-1.057328462600708
1748517882489873000,16.852872802734375,-8.798408508300781,-5.573183059692383,-1.91395902633667
1748517882508680400,16.871680419921876,-8.054241180419922,-5.030012130737305,-1.78953218460083
1748517882527487700,16.89048779296875,-5.611468315124512,-5.025226593017578,-1.5143576860427856
1748517882546295300,16.90929541015625,-7.0301127433776855,-2.4771697521209717,-4.000201225280762
1748517882565102800,16.928102783203126,-5.195116996765137,-2.386242389678955,-3.232105255126953
1748517882583910100,16.94691015625,-6.317051887512207,-2.627917528152466,-3.2584261894226074
1748517882602717700,16.9657177734375,-7.975277900695801,-2.9964120388031006,-2.938086986541748
1748517882621525200,16.984525146484376,-8.831908226013184,-4.657031059265137,-3.1151559352874756
1748517882640332500,17.00333251953125,-11.028220176696777,-7.535297393798828,-0.8324031829833984
1748517882659140000,17.02214013671875,-14.052449226379395,-8.37727165222168,-3.325425386428833
1748517882677947600,17.04094775390625,-11.987442970275879,-9.449256896972656,-1.1434701681137085
1748517882696755000,17.0597548828125,-10.858329772949219,-5.676074504852295,-3.5910286903381348
1748517882715562500,17.0785625,-7.642675399780273,-2.338385820388794,-3.2440693378448486
1748517882734370000,17.0973701171875,-6.86261510848999,-1.0226325988769531,-2.3997020721435547
1748517882753177300,17.11617724609375,-5.5468621253967285,-0.11575279384851456,-2.1723837852478027
1748517882771985000,17.13498486328125,-5.922534942626953,-0.8072785139083862,-1.0166505575180054
1748517882790792400,17.15379248046875,-5.702395439147949,-0.9771689176559448,-0.3681955933570862
1748517882809599700,17.172599853515624,-5.592325687408447,-0.4220340847969055,-0.1339980661869049
1748517882828407300,17.1914072265625,-5.233402252197266,-2.431705951690674,2.0171494483947754
1748517882847214800,17.21021484375,-6.216553211212158,1.3770694732666016,-2.471486806869507
1748517882866022400,17.2290224609375,-8.831908226013184,2.365305185317993,-1.2391830682754517
1748517882884829700,17.24782958984375,-10.446764945983887,-0.7378866672515869,1.3088740110397339
1748517882903637200,17.26663720703125,-8.068597793579102,-4.415356159210205,-0.2988037168979645
1748517882922444800,17.28544482421875,-10.312766075134277,-0.620638370513916,-5.5483574867248535
1748517882941252400,17.30425244140625,-13.11685562133789,-4.496711730957031,2.1678972244262695
1748517882960059600,17.3230595703125,-10.205089569091797,-3.4295129776000977,0.20817556977272034
1748517882978867200,17.3418671875,-11.071290969848633,-2.6949164867401123,0.35892340540885925
1748517882997674800,17.3606748046875,-8.583054542541504,-2.7212376594543457,-0.8898309469223022
1748517883016482300,17.379482421875,-9.47767162322998,-2.864806890487671,-0.5955137610435486
1748517883035289900,17.398289794921876,-9.71695327758789,-4.759922504425049,1.3543375730514526
1748517883054097200,17.41709716796875,-7.800601959228516,-5.556433200836182,0.8327022790908813
1748517883072904700,17.43590478515625,-6.771687984466553,-4.3411784172058105,-2.2010977268218994
1748517883091712300,17.454712158203126,-6.482156753540039,-3.903291940689087,-2.550449848175049
1748517883110519800,17.473519775390624,-6.018248081207275,-4.2693939208984375,-2.1173489093780518
1748517883129327000,17.4923271484375,-5.597111225128174,-4.575675010681152,-1.7009978294372559
1748517883148134700,17.511134765625,-7.946564197540283,-4.9393839836120605,-2.402094841003418
1748517883166942200,17.529942138671874,-7.57806921005249,-3.7669010162353516,-3.100799083709717
1748517883185749800,17.548749755859376,-6.427121639251709,-2.163709878921509,-2.9572296142578125
1748517883204557300,17.567557373046874,-5.085047245025635,-1.6184453964233398,-1.8541384935379028
1748517883223364900,17.58636474609375,-4.7596235275268555,-2.596810817718506,-1.3875380754470825
1748517883242172200,17.605172119140626,-6.948757171630859,-5.132903575897217,-2.41166615486145
1748517883260979700,17.623979736328124,-7.032505512237549,-6.903592586517334,-2.9644081592559814
1748517883279787300,17.642787353515626,-6.187839508056641,-6.626025199890137,-2.4379870891571045
1748517883298594800,17.6615947265625,-6.781259536743164,-6.0972113609313965,-1.6531413793563843
1748517883317402400,17.68040234375,-6.656832695007324,-6.9945197105407715,-1.911566138267517
1748517883336210000,17.6992099609375,-6.276373863220215,-8.166703224182129,-3.73459792137146
1748517883355017500,17.718017578125,-6.0849480628967285,-10.39202880859375,-3.521636724472046
1748517883373825000,17.736824951171876,-6.64486837387085,-10.131211280822754,-4.471587181091309
1748517883392632600,17.755632568359374,-8.078168869018555,-8.824729919433594,-4.639084815979004
1748517883411440000,17.774440185546876,-6.262016773223877,-8.609375953674316,-2.818445920944214
1748517883430247400,17.793247314453126,-6.92482852935791,-8.032705307006836,-3.600599765777588
1748517883449055000,17.812054931640624,-7.714460372924805,-8.786444664001465,-2.906980514526367
1748517883467862500,17.830862548828126,-5.288437366485596,-10.401599884033203,-2.8998019695281982
1748517883486670000,17.849670166015624,-6.3529438972473145,-8.927620887756348,-5.32821798324585
1748517883505477600,17.8684775390625,-6.8482584953308105,-9.549755096435547,-3.528815269470215
1748517883524285200,17.88728515625,-5.8459649085998535,-11.114361763000488,-1.1721839904785156
1748517883543092700,17.9060927734375,-5.494219779968262,-9.10229778289795,-2.3374886512756348
1748517883561900300,17.924900390625,-4.247559070587158,-7.061518669128418,-3.1917262077331543
1748517883580707800,17.943707763671874,-5.422435283660889,-6.58056116104126,-2.8926234245300293
1748517883599515400,17.962515380859376,-5.774179935455322,-8.499305725097656,-3.421138286590576
1748517883618323000,17.981322998046874,-5.324329376220703,-9.647860527038574,-4.296911239624023
1748517883637130500,18.000130615234376,-5.834000587463379,-9.975677490234375,-2.552842617034912
1748517883655938000,18.01893798828125,-5.144867897033691,-8.920442581176758,-3.961916208267212
1748517883674745600,18.03774560546875,-4.73090934753418,-8.86780071258545,-3.5336008071899414
1748517883693553200,18.05655322265625,-5.872285842895508,-8.15234661102295,-1.4976078271865845
1748517883712360700,18.075360595703124,-7.479963779449463,-6.57338285446167,-1.1003992557525635
1748517883731168300,18.094168212890626,-7.223931789398193,-6.750451564788818,-3.6125640869140625
1748517883749975800,18.112975830078124,-6.240481376647949,-8.83669376373291,-1.6483557224273682
1748517883768783400,18.131783447265626,-5.585147380828857,-7.516155242919922,0.2679961323738098
1748517883787591000,18.1505908203125,-5.520540714263916,-6.149853229522705,-1.0405787229537964
1748517883806398500,18.1693984375,-6.6592254638671875,-6.693024158477783,-0.8659027218818665
1748517883825206000,18.1882060546875,-7.135396957397461,-7.1835527420043945,-0.5835496187210083
1748517883844013600,18.207013671875,-7.276573657989502,-6.910770893096924,-0.2225325107574463
1748517883862821000,18.225821044921876,-8.551948547363281,-6.57338285446167,-1.3109676837921143
1748517883881629000,18.24462890625,-9.298210144042969,-7.647760391235352,-2.418844699859619
1748517883900436500,18.2634365234375,-8.738588333129883,-8.997013092041016,-1.638784408569336
1748517883919244000,18.282244140625,-7.188039302825928,-8.999405860900879,-3.830310821533203
1748517883938051600,18.301051513671876,-7.152146816253662,-8.724231719970703,-1.8708882331848145
1748517883956859100,18.319859130859374,-6.697510719299316,-6.271887302398682,-3.0050861835479736
1748517883975666700,18.338666748046876,-7.51585578918457,-4.405784606933594,-2.6581268310546875
1748517883994474200,18.35747412109375,-8.23130989074707,-4.137788772583008,-2.684448003768921
1748517884013281800,18.37628173828125,-8.171489715576172,-4.695316314697266,-0.3969094455242157
1748517884032089300,18.39508935546875,-7.9585280418396,-5.723930835723877,0.02632104977965355
1748517884050897200,18.413897216796876,-8.303094863891602,-6.872485637664795,-0.23210379481315613
1748517884069704700,18.43270458984375,-8.872586250305176,-6.367599964141846,-0.5404788255691528
1748517884088512300,18.45151220703125,-8.094919204711914,-5.2477593421936035,0.31106695532798767
1748517884107319800,18.47031982421875,-7.238288402557373,-4.946562767028809,-0.7677969932556152
1748517884126127400,18.48912744140625,-7.183253765106201,-4.532604217529297,-2.1149561405181885
1748517884144935000,18.507934814453126,-8.719446182250977,-3.551547050476074,-3.806382656097412
1748517884173146400,18.536146484375,-8.571090698242188,-4.235894203186035,-0.6098706722259521
1748517884191954000,18.554953857421875,-7.590033531188965,-5.305186748504639,-1.6028920412063599
1748517884210761500,18.573761474609373,-7.601997375488281,-3.606581926345825,-2.715554714202881
1748517884229569300,18.5925693359375,-8.709874153137207,-3.5539398193359375,-1.3923237323760986
1748517884248376800,18.611376953125,-9.817452430725098,-5.369792938232422,-0.8754739761352539
1748517884267184400,18.630184326171875,-9.023035049438477,-3.4677982330322266,-2.9261229038238525
1748517884285992000,18.648991943359373,-10.377372741699219,-2.362314224243164,-1.1027921438217163
1748517884304799500,18.667799560546875,-12.28415298461914,-3.580260992050171,-1.0286146402359009
1748517884323607300,18.686607177734373,-5.946463584899902,-2.235494613647461,-1.7488542795181274
1748517884342414800,18.705414794921875,-5.166403293609619,-0.19950158894062042,-1.423430323600769
1748517884361222400,18.724222412109373,-7.027719974517822,0.898504912853241,-0.7342974543571472
1748517884380030000,18.743030029296875,-6.7310099601745605,-1.77397882938385,1.2370892763137817
1748517884398837500,18.76183740234375,-7.264609336853027,-1.0082756280899048,-2.016850471496582
1748517884417645300,18.780645263671875,-8.291130065917969,0.506381094455719,-1.7775681018829346
1748517884436452900,18.799452880859373,-10.4850492477417,-1.474876046180725,1.1030912399291992
1748517884455260400,18.818260498046875,-9.642776489257812,-2.2881367206573486,-0.9233304262161255
1748517884474068000,18.83706787109375,-9.49920654296875,-1.9558334350585938,-1.0501500368118286
1748517884492875800,18.855875732421875,-7.795815944671631,-2.2402801513671875,-0.27756741642951965
1748517884511683300,18.874683349609374,-7.798209190368652,-2.1278176307678223,-0.39451664686203003
1748517884530491000,18.893490966796875,-7.09711217880249,-1.695015788078308,0.1459621787071228
1748517884549298400,18.91229833984375,-8.157132148742676,-0.6493522524833679,0.45942193269729614
1748517884568106000,18.93110595703125,-6.620940208435059,-1.7715860605239868,0.29431718587875366
1748517884586913800,18.949913818359374,-6.687939167022705,-3.211766242980957,-0.5428716540336609
1748517884605721300,18.968721435546875,-7.523034572601318,-4.355535507202148,-1.0716854333877563
1748517884624529000,18.98752880859375,-7.692924976348877,-5.408078193664551,-1.0668997764587402
1748517884643336400,19.00633642578125,-7.4225358963012695,-6.046961784362793,-1.2678968906402588
1748517884662144300,19.025144287109374,-8.559126853942871,-5.4056854248046875,-2.490629196166992
1748517884680951800,19.043951904296875,-8.642875671386719,-4.664209365844727,-1.5143576860427856
1748517884699759400,19.06275927734375,-8.310273170471191,-4.386641979217529,-1.7177475690841675
1748517884718567000,19.08156689453125,-9.606884002685547,-5.144867897033691,-1.612463355064392
1748517884737374700,19.100374755859374,-8.496912956237793,-6.819843769073486,-0.7462615370750427
1748517884756182300,19.119182373046876,-7.436892986297607,-7.205088138580322,-0.2392822653055191
1748517884774989800,19.13798974609375,-6.558726787567139,-6.3029937744140625,0.16271193325519562
1748517884793797600,19.156797607421876,-6.585047721862793,-5.676074504852295,-0.23688943684101105
1748517884812605200,19.175605224609374,-7.70249605178833,-6.3269219398498535,-2.143670082092285
1748517884831412700,19.194412841796876,-8.74337387084961,-8.647661209106445,-2.8782665729522705
1748517884850220300,19.21322021484375,-8.178668022155762,-10.375279426574707,-3.476173162460327
1748517884869028000,19.232028076171876,-7.008577346801758,-10.152746200561523,-3.045764207839966
1748517884887835600,19.250835693359374,-5.960820198059082,-9.078369140625,-2.9907290935516357
1748517884906643200,19.269643310546876,-7.044469833374023,-7.941778182983398,-3.490530014038086
1748517884925451000,19.288450927734374,-7.255038261413574,-8.645268440246582,-2.1293129920959473
1748517884944258600,19.307258544921876,-6.446264266967773,-9.55214786529541,-2.2250258922576904
1748517884963066000,19.326066162109374,-6.410371780395508,-9.473184585571289,-2.8304100036621094
1748517884981873700,19.344873779296876,-5.783751487731934,-9.248259544372559,-3.0098717212677
1748517885000681500,19.363681396484374,-5.802894115447998,-8.772088050842285,-3.213261604309082
1748517885019489000,19.382489013671876,-7.202396392822266,-9.073583602905273,-3.514458179473877
1748517885038296600,19.401296630859374,-7.015756130218506,-9.623932838439941,-3.418745279312134
1748517885057104400,19.4201044921875,-6.051448345184326,-8.444271087646484,-2.3350958824157715
1748517885075912000,19.438911865234374,-5.18315315246582,-6.401099681854248,-2.1293129920959473
1748517885094719500,19.457719482421876,-4.790729999542236,-6.008676528930664,-1.5981063842773438
1748517885113527300,19.47652734375,-5.597111225128174,-6.764808654785156,-0.2919243574142456
1748517885132334800,19.4953349609375,-6.776473522186279,-7.025626182556152,-1.85174560546875
1748517885151142400,19.514142333984374,-6.491727828979492,-8.781659126281738,-2.6270201206207275
1748517885169950000,19.532949951171876,-6.920042991638184,-8.793622970581055,-0.34666016697883606
1748517885188757800,19.5517578125,-6.939185619354248,-7.396513938903809,-0.9520443081855774
1748517885207565300,19.5705654296875,-5.824429512023926,-7.535297393798828,-1.6316059827804565
1748517885226372900,19.589372802734374,-6.716653347015381,-7.829614639282227,-0.5309075117111206
1748517885245180700,19.6081806640625,-8.8438720703125,-7.913064479827881,-0.6816553473472595
1748517885263988200,19.62698828125,-10.006484985351562,-7.896613597869873,-2.6676981449127197
1748517885282795800,19.645795654296876,-8.717052459716797,-7.674081325531006,-3.1055846214294434
1748517885301603600,19.664603515625,-6.709474563598633,-7.932207107543945,-1.693819284439087
1748517885320411100,19.6834111328125,-5.972784519195557,-7.642974853515625,-0.48065826296806335
1748517885339218700,19.70221875,-6.178267955780029,-7.049554824829102,-1.2942179441452026
1748517885358026200,19.721026123046876,-7.381857872009277,-7.073482990264893,-1.6579270362854004
1748517885376834000,19.739833984375,-8.72183895111084,-7.4204421043396,-1.0477572679519653
1748517885395641600,19.7586416015625,-8.193024635314941,-7.238587379455566,-2.339881420135498
1748517885414449200,19.77744921875,-7.417750358581543,-5.9321064949035645,-2.670090913772583
1748517885433257000,19.796257080078124,-6.912864685058594,-5.195116996765137,-0.26081767678260803
1748517885452064500,19.815064453125,-6.532405853271484,-5.008476734161377,-2.150848388671875
1748517885470872000,19.8338720703125,-7.3986077308654785,-2.6638097763061523,-3.064906597137451
1748517885489679600,19.8526796875,-7.3292155265808105,-4.467998027801514,3.268296718597412
1748517885508487400,19.8714873046875,-9.307781219482422,-6.8844499588012695,-0.32273194193840027
1748517885527295200,19.890295166015626,-11.578569412231445,-7.106982231140137,-3.4498519897460938
1748517885546102800,19.909102783203124,-10.607083320617676,-5.896214008331299,-0.6840481758117676
1748517885564910600,19.92791064453125,-7.953742504119873,-4.444069862365723,-2.315953254699707
1748517885583718100,19.94671826171875,-9.200103759765625,-3.2213375568389893,-3.1677980422973633
1748517885602525700,19.965525634765626,-11.121540069580078,-2.400599241256714,-1.490429401397705
1748517885621333200,19.984333251953124,-12.42533016204834,-3.8841493129730225,-0.3490529954433441
1748517885640141000,20.00314111328125,-9.604491233825684,-5.32911491394043,-1.4688940048217773
1748517885658948600,20.021948486328125,-6.920042991638184,-3.5539398193359375,-1.1673983335494995
1748517885677756200,20.040756103515626,-5.147260665893555,-1.111167073249817,-1.5095720291137695
1748517885696564000,20.05956396484375,-5.25972318649292,0.2838485836982727,-1.918744683265686
1748517885715371500,20.07837158203125,-6.5180487632751465,0.12831512093544006,-0.9592227935791016
1748517885734179000,20.097178955078125,-5.7981085777282715,0.4226323068141937,-1.4569299221038818
1748517885752986600,20.115986572265626,-5.778965950012207,0.1905284970998764,-1.2942179441452026
1748517885771794400,20.13479443359375,-5.71914529800415,-0.03200400248169899,-1.6339987516403198
1748517885790602000,20.15360205078125,-8.123632431030273,0.25274190306663513,-1.85174560546875
1748517885809409500,20.172409423828125,-8.195417404174805,-0.9077770709991455,-0.6529414653778076
1748517885828217000,20.191217041015626,-6.951149940490723,-1.7476578950881958,-0.5739783048629761
1748517885847025000,20.21002490234375,-9.037391662597656,-1.379163146018982,-1.8996020555496216
1748517885865832400,20.22883251953125,-10.547263145446777,-2.510669231414795,-0.88025963306427
1748517885884640000,20.247639892578125,-10.408479690551758,-4.467998027801514,0.9355936646461487
1748517885903447600,20.266447509765626,-7.989634990692139,-4.786243438720703,-0.5428716540336609
1748517885922255400,20.28525537109375,-9.410672187805176,-4.322035789489746,-0.6912266612052917
1748517885941063000,20.30406298828125,-7.987242221832275,-4.781457901000977,0.8159525394439697
1748517885959870500,20.322870361328125,-7.427321434020996,-4.336392879486084,-0.6146563291549683
1748517885978678300,20.34167822265625,-9.39153003692627,-3.9798622131347656,-1.7273188829421997
1748517885997485800,20.36048583984375,-10.07587718963623,-5.286044120788574,-1.0621141195297241
1748517886016293400,20.37929345703125,-8.02074146270752,-7.609475135803223,-1.246361494064331
1748517886035101000,20.398100830078125,-7.369893550872803,-8.628518104553223,-2.1484556198120117
1748517886053908700,20.41690869140625,-9.140283584594727,-7.059125900268555,-0.7941179871559143
1748517886072716300,20.43571630859375,-8.37727165222168,-5.910571098327637,-0.12681959569454193
1748517886091523800,20.45452392578125,-7.791030406951904,-6.37956428527832,-2.000100612640381
1748517886110331400,20.473331298828125,-7.752745151519775,-8.212167739868164,-2.8328030109405518
1748517886129139200,20.49213916015625,-7.917850017547607,-9.20279598236084,-3.0601210594177246
1748517886147946800,20.51094677734375,-8.044670104980469,-9.387042999267578,-2.5695924758911133
1748517886166754300,20.52975439453125,-7.759923934936523,-9.104690551757812,-2.9404799938201904
1748517886185561900,20.548561767578125,-7.618747234344482,-9.21715259552002,-3.024228811264038
1748517886204369700,20.56736962890625,-7.001399040222168,-9.332008361816406,-2.055135488510132
1748517886223177200,20.58617724609375,-7.202396392822266,-9.446864128112793,-1.2080763578414917
1748517886241984800,20.60498486328125,-7.683353424072266,-10.934900283813477,-1.5693925619125366
1748517886260792300,20.623792236328125,-7.178467750549316,-12.171989440917969,-0.6242275834083557
1748517886279599900,20.642599853515627,-5.606682777404785,-8.563912391662598,-1.8852450847625732
1748517886298407700,20.66140771484375,-3.5033915042877197,-5.149653434753418,-3.76570463180542
1748517886317215200,20.68021533203125,-3.3215370178222656,-4.503890514373779,-3.5048868656158447
1748517886336022800,20.699022705078125,-5.1065826416015625,-5.2166523933410645,-2.3685953617095947
1748517886354830300,20.717830322265623,-7.04925537109375,-6.475276947021484,-2.7753751277923584
1748517886373638000,20.736637939453125,-8.499305725097656,-8.992227554321289,-1.4760724306106567
1748517886392445700,20.75544580078125,-8.767302513122559,-9.291330337524414,-1.3037892580032349
1748517886411253200,20.774253173828125,-8.453842163085938,-8.642875671386719,-1.3420743942260742
1748517886430060800,20.793060791015623,-7.920242786407471,-7.760222911834717,-2.4595224857330322
1748517886448868400,20.811868408203125,-6.412764549255371,-8.61176872253418,0.849452018737793
1748517886467676000,20.830676025390623,-6.018248081207275,-6.480062961578369,0.46899324655532837
1748517886486483700,20.849483642578125,-6.537191390991211,-7.028019428253174,-1.8038891553878784
1748517886505291300,20.868291259765623,-8.427521705627441,-8.260024070739746,-1.1171491146087646
1748517886524098800,20.887098876953125,-9.166604042053223,-8.037490844726562,-3.0577282905578613
1748517886542906400,20.90590625,-8.602197647094727,-8.748159408569336,-2.545664072036743
1748517886561714000,20.9247138671875,-7.704888820648193,-8.530412673950195,0.14117653667926788
1748517886580521500,20.943521484375,-7.022934436798096,-6.917949199676514,0.2584248483181
1748517886599329300,20.962329345703125,-6.410371780395508,-5.673681735992432,-2.591127872467041
1748517886618136800,20.98113671875,-7.089933395385742,-5.037190914154053,-2.4762723445892334
1748517886636944400,20.9999443359375,-8.71226692199707,-5.987141132354736,1.428515076637268
1748517886655752000,21.018751953125,-8.709874153137207,-7.339086055755615,-0.3155534863471985
1748517886674559500,21.0375595703125,-6.4079790115356445,-5.403292655944824,-3.2656047344207764
1748517886693367000,21.056366943359375,-6.269195556640625,-1.8505492210388184,0.3613162338733673
1748517886721578500,21.08457861328125,-9.49202823638916,-4.886742115020752,-2.062314033508301
1748517886740386000,21.103385986328124,-11.229217529296875,-5.228616714477539,-3.5168511867523193
1748517886759193600,21.122193603515626,-10.721939086914062,-6.149853229522705,-2.528914451599121
1748517886778001200,21.141001220703124,-10.647761344909668,-5.889035701751709,-2.167598247528076
1748517886796809000,21.15980908203125,-12.008978843688965,-5.802894115447998,-1.5789638757705688
1748517886815616500,21.178616455078124,-8.85344409942627,-4.862813949584961,-2.820838689804077
1748517886834424000,21.197424072265626,-7.664210796356201,-2.2713868618011475,-2.7370901107788086
1748517886862635500,21.225635498046874,-9.314959526062012,-0.5512465238571167,0.3278166949748993
1748517886881443000,21.244443115234375,-6.829115867614746,-1.4054841995239258,0.5120640397071838
1748517886900250600,21.263250732421874,-2.0751755237579346,0.04217349737882614,-0.038285162299871445
1748517886919058200,21.28205810546875,-3.127718210220337,0.3604189157485962,-0.5596213936805725
1748517886937865700,21.30086572265625,-2.9940192699432373,1.506281852722168,-1.394716501235962
1748517886956673300,21.31967333984375,-6.814758777618408,1.4919248819351196,-0.7630113363265991
1748517886975480800,21.338480712890625,-7.843672752380371,1.2717852592468262,0.33738797903060913
1748517886994288400,21.357288330078124,-8.999106407165527,0.45134615898132324,-1.5478571653366089
1748517887013096000,21.376095947265625,-11.604890823364258,-1.9797616004943848,-1.9043877124786377
1748517887031903500,21.394903564453124,-15.337096214294434,-4.066003799438477,-2.024028778076172
1748517887050711300,21.413711181640625,-13.920844078063965,-4.164109706878662,-0.1579262912273407
1748517887069518800,21.432518798828124,-7.192824840545654,-2.4149563312530518,0.7489534616470337
1748517887088326400,21.451326416015625,-5.432006359100342,-0.4698905348777771,1.5864413976669312
1748517887107134000,21.470134033203124,-6.692724704742432,-1.7021942138671875,-1.2128620147705078
1748517887125941500,21.48894140625,-5.805286884307861,-3.5635111331939697,-0.9807581901550293
1748517887144749000,21.5077490234375,-4.290630340576172,-3.6807594299316406,1.0289137363433838
1748517887163556600,21.526556640625,-4.582554340362549,-2.345564365386963,0.607776939868927
1748517887182364200,21.5453642578125,-6.118447303771973,-1.4006985425949097,-0.3035893738269806
1748517887201171700,21.564171630859374,-6.673582553863525,-2.2067806720733643,-0.7199404835700989
1748517887219979300,21.582979248046875,-8.752944946289062,-3.723830223083496,-2.3757736682891846
1748517887238786800,21.601786865234374,-8.535198211669922,-6.482455730438232,-3.110370397567749
1748517887257594400,21.620594482421875,-6.891329288482666,-9.080761909484863,-5.172684192657471
1748517887276402000,21.63940185546875,-12.487543106079102,-11.341680526733398,-6.696613311767578
1748517887295209700,21.658209716796875,-12.911072731018066,-13.593326568603516,1.2490534782409668
1748517887314017300,21.677017333984374,-2.455634355545044,-10.210174560546875,0.16749759018421173
1748517887332824800,21.695824951171875,-2.6877379417419434,-5.013262748718262,-5.464608669281006
1748517887351632400,21.71463232421875,-12.726825714111328,-4.264608383178711,-6.079564094543457
1748517887370440000,21.73343994140625,-5.8148579597473145,-12.59312629699707,-1.069292664527893
1748517887389247500,21.75224755859375,-6.2500529289245605,-12.162418365478516,-5.380859851837158
1748517887408055000,21.771054931640624,-12.468400955200195,-11.79153060913086,-0.846760094165802
1748517887426862600,21.789862548828125,-6.455835342407227,-10.578668594360352,2.9093732833862305
1748517887445670100,21.808670166015624,-6.4319071769714355,-6.288637161254883,1.947757601737976
1748517887464477700,21.827477783203125,-5.5396833419799805,-5.022833824157715,-2.1317057609558105
1748517887483285200,21.84628515625,-3.0346972942352295,-4.12343168258667,-6.0197434425354
1748517887502092800,21.8650927734375,-5.278865814208984,-4.587639331817627,-4.921437740325928
1748517887520900400,21.883900390625,-7.743174076080322,-8.539983749389648,-1.3923237323760986
1748517887539708000,21.9027080078125,-8.250452041625977,-9.611968994140625,-1.3468600511550903
1748517887558515500,21.921515380859375,-8.23848819732666,-9.403793334960938,-2.6724836826324463
1748517887577323000,21.940322998046874,-7.707281589508057,-11.284252166748047,-3.459423303604126
1748517887596130600,21.959130615234375,-8.606983184814453,-12.339487075805664,-1.5000007152557373
1748517887614938000,21.977938232421874,-10.422836303710938,-10.430314064025879,-1.1721839904785156
1748517887633745700,21.99674560546875,-10.293623924255371,-9.647860527038574,-3.720241069793701
1748517887652553200,22.01555322265625,-6.64486837387085,-9.66221809387207,-1.8924236297607422
1748517887671360800,22.03436083984375,-2.905484914779663,-7.980063438415527,-1.3660026788711548
1748517887690168300,22.053168212890625,-2.568096876144409,-6.214459419250488,-0.9400802254676819
1748517887708975900,22.071975830078124,-4.549055099487305,-5.403292655944824,-0.392123818397522
1748517887727783400,22.090783447265625,-5.7981085777282715,-5.049154758453369,-1.8613169193267822
1748517887746590700,22.1095908203125,-6.245266914367676,-4.400999069213867,-3.3230323791503906
1748517887765398300,22.128398193359374,-8.025527000427246,-4.578067779541016,-2.2345972061157227
1748517887784205800,22.147205810546875,-8.4562349319458,-4.688137531280518,-1.4138591289520264
1748517887812417300,22.175417236328126,-9.994521141052246,-5.700002670288086,-0.6457630395889282
1748517887831224800,22.194224853515625,-11.480463981628418,-7.298408031463623,0.5814558863639832
1748517887850032400,22.213032470703126,-9.207282066345215,-7.76261568069458,-0.6864410042762756
1748517887868840000,22.23183984375,-7.960920810699463,-5.759823322296143,-2.440380096435547
1748517887887647500,22.2506474609375,-11.413464546203613,-3.912863254547119,1.8161523342132568
1748517887906454800,22.269454833984376,-14.387444496154785,-5.386542797088623,-0.913759171962738
1748517887925262300,22.288262451171875,-11.698210716247559,-6.111567974090576,-2.8328030109405518
1748517887944070000,22.30706982421875,-6.759724140167236,-4.133002758026123,-2.9117660522460938
1748517887962877400,22.32587744140625,-6.754938125610352,-1.6471593379974365,-1.4952150583267212
1748517887981685000,22.34468505859375,-6.97986364364624,-0.7594220638275146,-0.18903298676013947
1748517888000492500,22.363492431640626,-7.384250640869141,-1.5538392066955566,-0.9329017400741577
1748517888019300000,22.382300048828125,-6.857829570770264,-2.5609183311462402,-1.2487542629241943
1748517888038107600,22.401107666015626,-5.242973327636719,-1.9151554107666016,-1.4784653186798096
1748517888056915200,22.419915283203125,-5.812465190887451,-0.20189441740512848,0.08374879509210587
1748517888075722500,22.438722412109374,-4.498805522918701,0.8341978192329407,-0.5787639617919922
1748517888094530000,22.457530029296876,-2.08713960647583,1.4273186922073364,-1.88285231590271
1748517888113337600,22.476337646484374,-6.278766632080078,1.2717852592468262,-4.529015064239502
1748517888132145200,22.495145263671876,-7.8819580078125,-0.8694919347763062,-1.7871394157409668
1748517888150952700,22.51395263671875,-7.336394309997559,-0.7187440991401672,-2.2872393131256104
1748517888169760300,22.53276025390625,-8.250452041625977,0.3197409212589264,-1.4641083478927612
1748517888188567800,22.55156787109375,-7.085147857666016,-0.8527421951293945,0.24885354936122894
1748517888207375400,22.570375244140624,-6.98704195022583,-1.3336994647979736,-0.8084749579429626
1748517888226183000,22.589182861328126,-8.724231719970703,-0.40289151668548584,-1.2583255767822266
1748517888244990200,22.607990234375,-10.654940605163574,-1.1733803749084473,1.100698471069336
1748517888263797800,22.6267978515625,-9.2886381149292,-3.441477060317993,1.490728497505188
1748517888282605300,22.645605224609376,-10.236196517944336,-4.044468402862549,-0.5021936297416687
1748517888301412900,22.664412841796874,-10.908578872680664,-4.719244480133057,-1.423430323600769
1748517888320220400,22.683220458984376,-9.283852577209473,-5.348257541656494,-1.277468204498291
1748517888339028000,22.702028076171874,-6.946363925933838,-4.7958149909973145,-1.0453643798828125
1748517888357835500,22.72083544921875,-7.223931789398193,-3.9870407581329346,-2.4140589237213135
1748517888376642800,22.739642822265626,-10.276874542236328,-4.436891555786133,-1.0238289833068848
1748517888395450400,22.758450439453124,-6.369693756103516,-6.252744674682617,-1.2798609733581543
1748517888414258000,22.7772578125,-7.652246952056885,-6.8365936279296875,-2.8567311763763428
1748517888433065500,22.7960654296875,-8.295916557312012,-7.5065836906433105,-2.4140589237213135
1748517888451873000,22.814873046875,-7.611568927764893,-8.609375953674316,-3.521636724472046
1748517888470680600,22.8336806640625,-8.886942863464355,-10.03310489654541,-3.8398821353912354
1748517888489488000,22.85248779296875,-8.882157325744629,-9.985248565673828,-0.516550600528717
1748517888508295400,22.87129541015625,-6.9344000816345215,-8.353343963623047,-2.196312189102173
1748517888527103000,22.89010302734375,-8.700303077697754,-7.984848976135254,-4.718048095703125
1748517888545910500,22.90891064453125,-9.300602912902832,-11.473285675048828,-0.28953152894973755
1748517888564718000,22.927718017578126,-7.867600917816162,-11.28664493560791,0.6939185857772827
1748517888583525600,22.946525634765624,-7.3914289474487305,-7.889435291290283,-2.717947483062744
1748517888602333000,22.9653330078125,-7.8317084312438965,-7.917850017547607,-4.23948335647583
1748517888621140500,22.984140380859376,-7.451249599456787,-8.800801277160645,-0.6409773826599121
1748517888639948000,23.002947998046874,-7.618747234344482,-6.604489803314209,-1.4066805839538574
1748517888658755600,23.021755615234376,-8.015955924987793,-6.774380207061768,-1.8397815227508545
1748517888677563100,23.040563232421874,-8.298309326171875,-8.616554260253906,-1.3301103115081787
1748517888696370400,23.059370361328124,-7.714460372924805,-8.58784008026123,-3.062513828277588
1748517888715178000,23.078177978515626,-6.807580471038818,-8.523234367370605,-3.2416765689849854
1748517888733985500,23.096985595703124,-5.915356636047363,-8.049455642700195,-1.6818552017211914
1748517888752793000,23.11579296875,-5.7981085777282715,-7.808079242706299,1.7563318014144897
1748517888771600600,23.1346005859375,-6.874579429626465,-6.894021034240723,-0.20338992774486542
1748517888790408000,23.153407958984374,-7.846065521240234,-6.848557472229004,-2.071885347366333
1748517888809215500,23.172215576171876,-8.422736167907715,-7.492226600646973,-1.0214362144470215
1748517888828023000,23.19102294921875,-7.822137355804443,-7.607082366943359,-0.5763711333274841
1748517888846830600,23.20983056640625,-7.554141044616699,-7.2696943283081055,-2.1460628509521484
1748517888865638000,23.228637939453126,-9.01107120513916,-6.688238620758057,-1.150648593902588
1748517888884445400,23.247445556640624,-8.951549530029297,-6.164210319519043,-1.332503080368042
1748517888903253000,23.2662529296875,-7.886743545532227,-6.247959136962891,-1.2320045232772827
1748517888922060500,23.285060546875,-9.779167175292969,-7.590332508087158,-1.2296117544174194
1748517888940868000,23.3038681640625,-11.356037139892578,-8.535198211669922,-0.9568299651145935
1748517888959675400,23.32267529296875,-10.762617111206055,-8.482556343078613,-1.485643744468689
1748517888978483000,23.34148291015625,-8.72183895111084,-7.310372352600098,-1.2990036010742188
1748517888997290500,23.36029052734375,-8.097311973571777,-5.367400169372559,-0.9520443081855774
1748517889016098000,23.37909814453125,-8.760123252868652,-3.8673996925354004,-1.2846466302871704
1748517889034905300,23.3979052734375,-7.3052873611450195,-2.6470601558685303,-3.7298123836517334
1748517889053713000,23.416712890625,-6.7070817947387695,-2.6183462142944336,-1.9929221868515015
1748517889072520400,23.4355205078125,-6.178267955780029,-2.3910279273986816,-2.1149561405181885
1748517889091327700,23.45432763671875,-6.51326322555542,-1.9319051504135132,-1.4808580875396729
1748517889110135300,23.47313525390625,-6.984649181365967,-1.8912272453308105,-1.3588241338729858
1748517889128942800,23.49194287109375,-5.6018967628479,-0.8455637097358704,-2.48105788230896
1748517889147750400,23.51075048828125,-4.884049892425537,2.6979074478149414,-1.693819284439087
1748517889166557700,23.5295576171875,-6.343372821807861,1.0755738019943237,0.12203395366668701
1748517889185365200,23.548365234375,-4.3911285400390625,-0.0487537607550621,-0.8730811476707458
1748517889204172800,23.5671728515625,-7.113861560821533,1.719243049621582,-1.8062820434570312
1748517889222980400,23.58598046875,-6.546762943267822,1.6307085752487183,-0.361017107963562
1748517889241787600,23.60478759765625,-7.523034572601318,0.7265207767486572,0.4785645306110382
1748517889260595200,23.62359521484375,-7.968099594116211,-0.3047857880592346,-0.3203391432762146
1748517889279402500,23.642402587890626,-9.532706260681152,-1.2690932750701904,0.4259224236011505
1748517889298210000,23.6612099609375,-7.518248558044434,-3.3026933670043945,0.35892340540885925
1748517889317017600,23.680017578125,-9.819845199584961,-2.80977201461792,-1.0166505575180054
1748517889335825200,23.6988251953125,-7.726424217224121,-2.8600213527679443,0.014356935396790504
1748517889354632400,23.717632568359374,-7.511070251464844,-2.3886351585388184,-0.07178468257188797
1748517889373440000,23.73643994140625,-8.563912391662598,-2.3120648860931396,-0.15314064919948578
1748517889392247600,23.75524755859375,-6.173482418060303,-3.4295129776000977,1.4380863904953003
1748517889411054800,23.774054931640624,-6.096911907196045,-3.4199416637420654,0.15074782073497772
1748517889429862400,23.7928623046875,-9.908379554748535,-3.8530426025390625,-2.969193696975708
1748517889448670000,23.811669921875,-9.336494445800781,-7.934599876403809,-1.5478571653366089
1748517889467477200,23.830477294921874,-8.784051895141602,-9.375079154968262,-2.2728824615478516
1748517889486284800,23.849284912109376,-8.315058708190918,-8.434700012207031,-3.459423303604126
1748517889505092400,23.86809228515625,-7.652246952056885,-8.090133666992188,-1.8565312623977661
1748517889523899600,23.886899658203124,-7.183253765106201,-8.846264839172363,-0.7031907439231873
1748517889542707200,23.905707275390625,-8.047062873840332,-8.683553695678711,-1.5071791410446167
1748517889561514800,23.9245146484375,-8.549555778503418,-8.70508861541748,-1.2702897787094116
1748517889580322000,23.943322021484374,-8.575876235961914,-9.06401252746582,-0.5548357367515564
1748517889599129600,23.962129638671875,-7.683353424072266,-8.872586250305176,-0.7462615370750427
1748517889617937000,23.98093701171875,-7.331608772277832,-7.425227642059326,-1.2487542629241943
1748517889636744400,23.999744384765624,-6.838686943054199,-6.669095993041992,-3.923630952835083
1748517889655552000,24.018552001953125,-8.018348693847656,-8.360522270202637,-1.5191432237625122
1748517889674359300,24.037359375,-9.573384284973145,-10.698309898376465,-3.038585662841797
1748517889693166800,24.056166748046873,-11.31057357788086,-10.62413215637207,-2.0670995712280273
1748517889711974400,24.074974365234375,-9.611669540405273,-9.207581520080566,-2.5384857654571533
1748517889740185600,24.103185546875,-5.922534942626953,-8.561519622802734,-1.8373886346817017
1748517889758993000,24.121992919921876,-4.678267478942871,-7.791329860687256,-1.052542805671692
1748517889777800400,24.140800537109374,-4.00827693939209,-7.3654069900512695,-1.026221752166748
1748517889796607700,24.159607666015624,-3.8479578495025635,-7.0184478759765625,-1.4138591289520264
1748517889815415300,24.178415283203126,-5.192724227905273,-6.891628265380859,-1.6555341482162476
1748517889834222800,24.197222900390624,-7.750352382659912,-7.1285176277160645,-1.9785652160644531
1748517889853030100,24.216030029296874,-9.587740898132324,-7.1524457931518555,-1.6818552017211914
1748517889871837700,24.234837646484376,-9.35324478149414,-7.240980625152588,-1.095613718032837
1748517889890645000,24.25364501953125,-8.271987915039062,-7.659724235534668,-2.2322044372558594
1748517889909452500,24.27245263671875,-7.29810905456543,-8.360522270202637,-2.6198415756225586
1748517889928259800,24.291259765625,-7.334001541137695,-8.305487632751465,-1.0716854333877563
1748517889947067400,24.3100673828125,-7.334001541137695,-7.712366580963135,-2.976372241973877
1748517889965874700,24.328874755859374,-7.259823799133301,-6.633203506469727,-2.205883264541626
1748517889984682200,24.34768212890625,-13.509278297424316,-4.8197431564331055,-0.91136634349823
1748517890012893400,24.3758935546875,-11.825030326843262,-7.982456207275391,-1.6459628343582153
