time,seconds_elapsed,z,y,x
1748517865854248700,0.217248779296875,8.462427139282227,4.7028279304504395,1.562409520149231
1748517865873056800,0.236056884765625,8.398073196411133,4.8290228843688965,1.5242393016815186
1748517865891864800,0.25486474609375,8.39097785949707,4.8540802001953125,1.4831653833389282
1748517865910673000,0.2736728515625,8.374939918518066,4.869529724121094,1.522643804550171
1748517865929481000,0.29248095703125,8.356121063232422,4.878049373626709,1.5969550609588623
1748517865948289300,0.311289306640625,8.358110427856445,4.8669915199279785,1.6201146841049194
1748517865967097300,0.330097412109375,8.373490333557129,4.849514961242676,1.592874526977539
1748517865985905400,0.348905517578125,8.385417938232422,4.8370771408081055,1.567747712135315
1748517866004713700,0.367713623046875,8.388053894042969,4.836084842681885,1.5566699504852295
1748517866023521800,0.386521728515625,8.38658618927002,4.836883544921875,1.5620911121368408
1748517866042329900,0.405329833984375,8.381810188293457,4.8448166847229,1.5631381273269653
1748517866061138000,0.424137939453125,8.375204086303711,4.857625961303711,1.55878746509552
1748517866079946200,0.4429462890625,8.369755744934082,4.869172096252441,1.5520119667053223
1748517866098754300,0.46175439453125,8.370073318481445,4.872320175170898,1.5403794050216675
1748517866117562400,0.480562255859375,8.373929023742676,4.870587348937988,1.5248180627822876
1748517866136370400,0.499370361328125,8.371831893920898,4.875969409942627,1.5191220045089722
1748517866155178800,0.5181787109375,8.368121147155762,4.8780598640441895,1.5327948331832886
1748517866173986800,0.53698681640625,8.36992359161377,4.8731842041015625,1.5384541749954224
1748517866192795000,0.555794921875,8.376169204711914,4.867903709411621,1.5210827589035034
1748517866211603000,0.57460302734375,8.384777069091797,4.856919288635254,1.5087193250656128
1748517866230411300,0.593411376953125,8.392065048217773,4.843379020690918,1.5117247104644775
1748517866249219300,0.61221923828125,8.395463943481445,4.834875583648682,1.5200555324554443
1748517866268027400,0.63102734375,8.396759033203125,4.833587169647217,1.5169897079467773
1748517866286835700,0.649835693359375,8.396027565002441,4.839620113372803,1.5017260313034058
1748517866305643800,0.668643798828125,8.392912864685059,4.847115993499756,1.4949496984481812
1748517866324451800,0.687451904296875,8.388836860656738,4.85339879989624,1.4974417686462402
1748517866343260200,0.70626025390625,8.385644912719727,4.858780384063721,1.497861385345459
1748517866362068200,0.725068115234375,8.384407043457031,4.860886573791504,1.4979630708694458
1748517866380876300,0.743876220703125,8.38766098022461,4.8546977043151855,1.4998184442520142
1748517866399684600,0.7626845703125,8.395328521728516,4.841214656829834,1.5005006790161133
1748517866418492700,0.78149267578125,8.403273582458496,4.828371524810791,1.4974009990692139
1748517866437300700,0.80030078125,8.404656410217285,4.825954437255859,1.4974298477172852
1748517866456109000,0.819109130859375,8.39887523651123,4.837414741516113,1.4928847551345825
1748517866474917000,0.837917236328125,8.390863418579102,4.854762077331543,1.4815797805786133
1748517866493725200,0.85672509765625,8.385016441345215,4.868626117706299,1.4691407680511475
1748517866512533500,0.875533447265625,8.382293701171875,4.877237796783447,1.4560484886169434
1748517866531341600,0.894341552734375,8.38170337677002,4.880526065826416,1.448409914970398
1748517866550150000,0.91314990234375,8.383442878723145,4.877135276794434,1.4497672319412231
1748517866568958000,0.9319580078125,8.38784122467041,4.869519233703613,1.4499266147613525
1748517866587766000,0.95076611328125,8.391332626342773,4.865020751953125,1.4448165893554688
1748517866606574300,0.96957421875,8.392325401306152,4.864325046539307,1.4413959980010986
1748517866625382400,0.98838232421875,8.392334938049316,4.866616249084473,1.4335767030715942
1748517866644190700,1.007190673828125,8.391368865966797,4.869388103485107,1.4298206567764282
1748517866662998800,1.025998779296875,8.390840530395508,4.868991374969482,1.4342657327651978
1748517866681807000,1.04480712890625,8.39301586151123,4.864119529724121,1.4380584955215454
1748517866700615200,1.063615234375,8.395439147949219,4.859020709991455,1.4411455392837524
1748517866719423500,1.082423583984375,8.395183563232422,4.857865810394287,1.4465194940567017
1748517866738231600,1.1012314453125,8.394537925720215,4.858435153961182,1.4483518600463867
1748517866757039600,1.12003955078125,8.393804550170898,4.861815452575684,1.441243052482605
1748517866775848000,1.138847900390625,8.392097473144531,4.864963531494141,1.4405640363693237
1748517866794656000,1.157656005859375,8.392327308654785,4.862950801849365,1.4460091590881348
1748517866813464300,1.17646435546875,8.394633293151855,4.8587565422058105,1.4467198848724365
1748517866832272400,1.1952724609375,8.394559860229492,4.8584442138671875,1.4481972455978394
1748517866851080700,1.214080810546875,8.391590118408203,4.862972259521484,1.4502061605453491
1748517866869888800,1.232888671875,8.390435218811035,4.867507457733154,1.4416491985321045
1748517866888697000,1.251697021484375,8.392180442810059,4.868823051452637,1.4269750118255615
1748517866907505200,1.270505126953125,8.39426040649414,4.866621494293213,1.422237753868103
1748517866926313500,1.2893134765625,8.393779754638672,4.866367816925049,1.4259477853775024
1748517866945121500,1.30812158203125,8.389732360839844,4.871781826019287,1.4312689304351807
1748517866963929900,1.326929931640625,8.385041236877441,4.876644134521484,1.4421560764312744
1748517866982738200,1.34573828125,8.381898880004883,4.881584644317627,1.4437118768692017
1748517867001546200,1.364546142578125,8.378314018249512,4.892229080200195,1.428402304649353
1748517867020354600,1.3833544921875,8.375576972961426,4.901123046875,1.4138919115066528
1748517867039162600,1.40216259765625,8.37120532989502,4.907169818878174,1.4187967777252197
1748517867057971000,1.420970947265625,8.36613941192627,4.911010265350342,1.4352996349334717
1748517867076779000,1.439779052734375,8.371118545532227,4.900869369506836,1.440916657447815
1748517867095587300,1.45858740234375,8.3961181640625,4.860745906829834,1.4313418865203857
1748517867114395400,1.4773955078125,8.439970016479492,4.797453880310059,1.3862673044204712
1748517867133203700,1.49620361328125,8.516779899597168,4.679577350616455,1.3177310228347778
1748517867152012000,1.515011962890625,8.676925659179688,4.386908054351807,1.279212236404419
1748517867170820000,1.533820068359375,8.882643699645996,3.9298267364501953,1.3511133193969727
1748517867189628400,1.55262841796875,9.090508460998535,3.3808693885803223,1.45009183883667
1748517867208436500,1.5714365234375,9.270697593688965,2.8489837646484375,1.4518442153930664
1748517867227244800,1.590244873046875,9.394107818603516,2.4450957775115967,1.3937801122665405
1748517867246053000,1.60905322265625,9.449970245361328,2.2425763607025146,1.3562089204788208
1748517867264861200,1.627861083984375,9.443581581115723,2.2566263675689697,1.3772443532943726
1748517867283669500,1.64666943359375,9.366843223571777,2.4185147285461426,1.607300877571106
1748517867302477800,1.665477783203125,9.244349479675293,2.6362969875335693,1.9396717548370361
1748517867321286000,1.684285888671875,9.136000633239746,2.8413243293762207,2.15191912651062
1748517867340094200,1.70309423828125,9.043946266174316,2.9340338706970215,2.4018495082855225
1748517867358902500,1.721902587890625,9.00403118133545,2.829979658126831,2.662522077560425
1748517867377710600,1.740710693359375,9.02544116973877,2.5827858448028564,2.835667848587036
1748517867396519000,1.759518798828125,9.055885314941406,2.377302646636963,2.917147397994995
1748517867415327200,1.7783271484375,9.054533004760742,2.251917600631714,3.0190529823303223
1748517867434135300,1.79713525390625,9.023441314697266,2.143036365509033,3.1867382526397705
1748517867452943600,1.815943603515625,8.977959632873535,2.0265839099884033,3.385202646255493
1748517867471752000,1.834751953125,8.862183570861816,1.932565689086914,3.727905750274658
1748517867490560000,1.85356005859375,8.685251235961914,1.8589982986450195,4.157033920288086
1748517867509368300,1.872368408203125,8.528565406799316,1.7884749174118042,4.498368263244629
1748517867528176600,1.8911767578125,8.394637107849121,1.7256194353103638,4.766833782196045
1748517867546985000,1.90998486328125,8.224868774414062,1.6882891654968262,5.066714286804199
1748517867565793000,1.92879296875,7.996908187866211,1.7001925706863403,5.41564416885376
1748517867584601300,1.947601318359375,7.740132808685303,1.756845474243164,5.759707927703857
1748517867603409700,1.96640966796875,7.497284889221191,1.7795047760009766,6.0658440589904785
1748517867622217700,1.9852177734375,7.29071569442749,1.7532423734664917,6.319967269897461
1748517867650430200,2.01343017578125,7.10890007019043,1.594667673110962,6.564370155334473
1748517867669238500,2.032238525390625,7.119508266448975,1.391317367553711,6.5990309715271
1748517867688046600,2.051046630859375,7.210003852844238,1.1583726406097412,6.545563697814941
1748517867819704300,2.182704345703125,7.247936725616455,0.7306901812553406,6.565354824066162
1748517867904341500,2.267341552734375,5.306347370147705,0.8119423985481262,8.206936836242676
1748517867951362300,2.3143623046875,1.9871608018875122,1.27696692943573,9.517927169799805
1748517867970170400,2.33317041015625,0.3584505021572113,1.615319848060608,9.666056632995605
1748517867988978700,2.351978759765625,-1.1823064088821411,1.968070387840271,9.534110069274902
1748517868007787000,2.370787109375,-2.599313974380493,2.2554738521575928,9.182961463928223
1748517868026595000,2.389594970703125,-3.943368434906006,2.3935983180999756,8.653953552246094
1748517868045403400,2.4084033203125,-5.048283576965332,2.316269874572754,8.082085609436035
1748517868064211700,2.427211669921875,-5.71465539932251,1.8542054891586304,7.750807762145996
1748517868083020000,2.44602001953125,-6.211460113525391,0.9737887978553772,7.5259480476379395
1748517868101828400,2.464828369140625,-6.438353061676025,-0.15989525616168976,7.395432949066162
1748517868120636400,2.483636474609375,-6.228811264038086,-1.3894883394241333,7.445912837982178
1748517868139444700,2.50244482421875,-5.734585285186768,-2.566105604171753,7.529941558837891
1748517868167657200,2.5306572265625,-5.0183820724487305,-3.9861273765563965,7.422737121582031
1748517868186465300,2.54946533203125,-4.383532524108887,-4.610551357269287,7.463099479675293
1748517868224082000,2.58708203125,-3.164090871810913,-5.486350059509277,7.487247943878174
1748517868242890200,2.60589013671875,-2.6249942779541016,-5.772852420806885,7.480238437652588
1748517868261698600,2.624698486328125,-2.1835668087005615,-6.031148433685303,7.418064594268799
1748517868280506600,2.643506591796875,-2.2439680099487305,-6.178684711456299,7.277283191680908
1748517868299315000,2.66231494140625,-2.368251323699951,-6.258501052856445,7.168886661529541
1748517868318123300,2.681123291015625,-2.114603281021118,-6.348833084106445,7.16876220703125
1748517868355740000,2.718739990234375,-1.8069506883621216,-6.2849321365356445,7.307867527008057
1748517868393356300,2.756356201171875,-1.6266568899154663,-6.148207664489746,7.464845180511475
1748517868412164600,2.77516455078125,-1.535510778427124,-6.076946258544922,7.542103290557861
1748517868440376800,2.803376953125,-1.5679160356521606,-6.081035614013672,7.53213357925415
1748517868459185200,2.82218505859375,-1.7606805562973022,-6.160070896148682,7.424548149108887
1748517868477993500,2.840993408203125,-2.110351085662842,-6.229110240936279,7.274268627166748
1748517868506206000,2.8692060546875,-2.6909568309783936,-6.259792327880859,7.052953243255615
1748517868525014000,2.888013916015625,-2.9712555408477783,-6.242563724517822,6.955028533935547
1748517868543822300,2.906822265625,-3.213397741317749,-6.216407775878906,6.870278835296631
1748517868562630700,2.925630615234375,-3.5023598670959473,-6.231747627258301,6.713358402252197
1748517868581439000,2.94443896484375,-3.9434990882873535,-6.205613613128662,6.489187717437744
1748517868600247300,2.963247314453125,-4.356888294219971,-6.252307891845703,6.172240734100342
1748517868619055400,2.982055419921875,-4.673313140869141,-6.19607400894165,5.994930744171143
1748517868637863700,3.00086376953125,-4.818160057067871,-6.150582790374756,5.926723957061768
1748517868656672000,3.019672119140625,-4.822215557098389,-6.098429203033447,5.977104663848877
1748517868675480300,3.038480224609375,-4.77908182144165,-6.060639381408691,6.049744606018066
1748517868694288400,3.057288330078125,-4.66903829574585,-6.162333011627197,6.032919883728027
1748517868713096700,3.0760966796875,-4.495795726776123,-6.3998565673828125,5.916083335876465
1748517868731905000,3.094905029296875,-4.303164958953857,-6.683237552642822,5.743473529815674
1748517868750713300,3.11371337890625,-4.082656383514404,-6.959796905517578,5.5734663009643555
1748517868769521700,3.132521728515625,-3.8290047645568848,-7.212291717529297,5.430649280548096
1748517868788329700,3.151329833984375,-3.478210687637329,-7.493110179901123,5.284481048583984
1748517868807138000,3.170137939453125,-3.120534896850586,-7.8155388832092285,5.034879207611084
1748517868825946400,3.1889462890625,-3.055225372314453,-8.022171974182129,4.741386413574219
1748517868844754700,3.207754638671875,-3.337575674057007,-8.211427688598633,4.195645809173584
1748517868863563000,3.22656298828125,-3.777484178543091,-8.41535472869873,3.329087972640991
1748517868882371000,3.24537109375,-4.039623260498047,-8.60754680633545,2.400409460067749
1748517868901179400,3.264179443359375,-3.9766898155212402,-8.78874397277832,1.764737606048584
1748517868919987700,3.28298779296875,-3.7372074127197266,-8.961094856262207,1.3792940378189087
1748517868938796000,3.301796142578125,-3.5267093181610107,-9.081123352050781,1.1251269578933716
1748517868957604400,3.320604248046875,-3.4249398708343506,-9.122669219970703,1.1032147407531738
1748517868976412400,3.339412353515625,-3.518343448638916,-9.084646224975586,1.1228744983673096
1748517868995220700,3.358220703125,-3.634330987930298,-9.050091743469238,1.0285274982452393
1748517869014029000,3.377029052734375,-3.7304093837738037,-9.02778148651123,0.8681005835533142
1748517869032837400,3.39583740234375,-3.7679364681243896,-9.02623176574707,0.7072299122810364
1748517869051645700,3.414645751953125,-3.738436698913574,-9.049155235290527,0.5543032288551331
1748517869070454000,3.4334541015625,-3.6285321712493896,-9.10149097442627,0.4086565673351288
1748517869089262300,3.452262451171875,-3.4659059047698975,-9.171670913696289,0.19578157365322113
1748517869108070400,3.4710703125,-3.1766152381896973,-9.27787971496582,-0.021252458915114403
1748517869126878700,3.489878662109375,-2.831345558166504,-9.385976791381836,-0.23938831686973572
1748517869145687000,3.50868701171875,-2.5383384227752686,-9.459546089172363,-0.4941816031932831
1748517869164495400,3.527495361328125,-2.318732976913452,-9.486006736755371,-0.8997406363487244
1748517869183303700,3.5463037109375,-2.227405071258545,-9.416872024536133,-1.591090440750122
1748517869202112000,3.565112060546875,-2.2199227809906006,-9.235462188720703,-2.4389708042144775
1748517869220920300,3.58392041015625,-2.251399517059326,-8.99370288848877,-3.196075916290283
1748517869239728600,3.602728759765625,-1.9255270957946777,-8.76733684539795,-3.9492452144622803
1748517869258537000,3.621536865234375,-1.6407129764556885,-8.553955078125,-4.506471157073975
1748517869277345000,3.640344970703125,-1.4431146383285522,-8.39184856414795,-4.864636421203613
1748517869296153300,3.6591533203125,-1.3564136028289795,-8.298583030700684,-5.046191215515137
1748517869314961700,3.677961669921875,-1.4250528812408447,-8.263524055480957,-5.084661483764648
1748517869333770000,3.69677001953125,-1.5370805263519287,-8.297675132751465,-4.99563455581665
1748517869352578300,3.715578369140625,-1.6524062156677246,-8.366604804992676,-4.8414740562438965
1748517869371386600,3.73438671875,-1.6918011903762817,-8.393762588500977,-4.7804741859436035
1748517869390195000,3.75319482421875,-1.6973778009414673,-8.36861515045166,-4.822404384613037
1748517869409003300,3.772003173828125,-1.6951889991760254,-8.339665412902832,-4.873057842254639
1748517869427811600,3.7908115234375,-1.7116382122039795,-8.338722229003906,-4.868921756744385
1748517869446620000,3.809619873046875,-1.7495274543762207,-8.307721138000488,-4.908289432525635
1748517869465428200,3.82842822265625,-1.7692792415618896,-8.164566993713379,-5.136134624481201
1748517869484236500,3.847236572265625,-1.7437809705734253,-7.9212799072265625,-5.512073516845703
1748517869503044900,3.866044921875,-1.6789807081222534,-7.590325355529785,-5.978157043457031
1748517869521853200,3.884853271484375,-1.5587958097457886,-7.200293064117432,-6.472736835479736
1748517869540661500,3.90366162109375,-1.4878047704696655,-6.846325874328613,-6.861824989318848
1748517869559469800,3.9224697265625,-1.6326537132263184,-6.609210014343262,-7.058553218841553
1748517869578278100,3.941278076171875,-1.98000168800354,-6.477216720581055,-7.091943264007568
1748517869597086500,3.96008642578125,-2.2353763580322266,-6.470736026763916,-7.021613597869873
1748517869615894800,3.978894775390625,-2.24761700630188,-6.578563690185547,-6.9167256355285645
1748517869634703000,3.997703125,-2.1572399139404297,-6.704585075378418,-6.823873519897461
1748517869653511400,4.016511474609375,-2.0556232929229736,-6.730832576751709,-6.829400062561035
1748517869672319700,4.03531982421875,-2.0002665519714355,-6.699835777282715,-6.876155376434326
1748517869691128000,4.054128173828125,-2.080913782119751,-6.658228874206543,-6.892617225646973
1748517869709936400,4.072936279296875,-2.197925567626953,-6.6083455085754395,-6.904294490814209
1748517869728744700,4.09174462890625,-2.2108426094055176,-6.591104984283447,-6.91663932800293
1748517869747553000,4.110552978515625,-2.195814371109009,-6.591549396514893,-6.92100191116333
1748517869766361300,4.129361328125,-2.1887500286102295,-6.5917649269104,-6.923033714294434
1748517869785169700,4.148169677734375,-2.189652442932129,-6.5843586921691895,-6.929792404174805
1748517869803978000,4.16697802734375,-2.2146859169006348,-6.569262981414795,-6.936161518096924
1748517869822786300,4.185786376953125,-2.248276948928833,-6.549856662750244,-6.9437031745910645
1748517869841594600,4.2045947265625,-2.2729058265686035,-6.524435043334961,-6.959600448608398
1748517869860403000,4.22340283203125,-2.303795576095581,-6.4871392250061035,-6.984263896942139
1748517869888615700,4.25161572265625,-2.2915563583374023,-6.444340229034424,-7.02777624130249
1748517869907424000,4.270424072265625,-2.2884676456451416,-6.422717571258545,-7.0485453605651855
1748517869926232300,4.289232421875,-2.2893218994140625,-6.406215667724609,-7.063271522521973
1748517869945040600,4.30804052734375,-2.3372511863708496,-6.382778644561768,-7.068789005279541
1748517869963849000,4.326848876953125,-2.3599677085876465,-6.372685432434082,-7.070347309112549
1748517869982657300,4.3456572265625,-2.3479678630828857,-6.381047248840332,-7.066801071166992
1748517870001465600,4.364465576171875,-2.3415627479553223,-6.3936309814453125,-7.057546138763428
1748517870020274000,4.38327392578125,-2.347391128540039,-6.396268367767334,-7.053219795227051
1748517870039082200,4.402082275390625,-2.344045400619507,-6.399618148803711,-7.05129337310791
1748517870057890800,4.420890869140625,-2.350827693939209,-6.404167175292969,-7.0449018478393555
1748517870076699100,4.43969921875,-2.3368499279022217,-6.40682315826416,-7.04713773727417
1748517870095507500,4.458507568359375,-2.3148133754730225,-6.41560697555542,-7.046419143676758
1748517870114315800,4.477315673828125,-2.3321235179901123,-6.42141580581665,-7.0354108810424805
1748517870133124000,4.4961240234375,-2.3900372982025146,-6.410857677459717,-7.025596618652344
1748517870151932400,4.514932373046875,-2.4532105922698975,-6.4019012451171875,-7.01197624206543
1748517870170740700,4.53374072265625,-2.500598669052124,-6.389251232147217,-7.006772518157959
1748517870189549000,4.552549072265625,-2.5504729747772217,-6.371294021606445,-7.005147933959961
1748517870208357600,4.571357666015625,-2.6156764030456543,-6.356357574462891,-6.994665145874023
1748517870227166000,4.590166015625,-2.6795945167541504,-6.349898338317871,-6.97631311416626
1748517870245974300,4.608974365234375,-2.721254348754883,-6.348256587982178,-6.961665630340576
1748517870264782600,4.627782470703125,-2.7396061420440674,-6.346635818481445,-6.9559431076049805
1748517870283591000,4.6465908203125,-2.7462613582611084,-6.338481903076172,-6.960752487182617
1748517870302399200,4.665399169921875,-2.7613213062286377,-6.318970203399658,-6.9725260734558105
1748517870321207600,4.68420751953125,-2.7848193645477295,-6.2881011962890625,-6.991062164306641
1748517870340016000,4.70301611328125,-2.827423572540283,-6.247886657714844,-7.009991645812988
1748517870358824400,4.721824462890625,-2.887420892715454,-6.200567245483398,-7.027527809143066
1748517870377632800,4.7406328125,-2.981031656265259,-6.144355773925781,-7.037807464599609
1748517870396441000,4.759441162109375,-3.083237409591675,-6.074055194854736,-7.054778099060059
1748517870415249400,4.77824951171875,-3.1955623626708984,-5.995148658752441,-7.072266578674316
1748517870434057700,4.7970576171875,-3.3189356327056885,-5.910589218139648,-7.086606502532959
1748517870452866000,4.815865966796875,-3.4456324577331543,-5.822096347808838,-7.0993804931640625
1748517870471674600,4.834674560546875,-3.5782620906829834,-5.733998775482178,-7.105468273162842
1748517870490483000,4.85348291015625,-3.69346284866333,-5.654301166534424,-7.110386848449707
1748517870509291300,4.872291259765625,-3.7998204231262207,-5.585306167602539,-7.108875274658203
1748517870528099600,4.891099609375,-3.8771274089813232,-5.525143623352051,-7.114144802093506
1748517870546908000,4.909907958984375,-3.9378468990325928,-5.462709903717041,-7.128993511199951
1748517870565716200,4.92871630859375,-4.007296085357666,-5.390751361846924,-7.145052433013916
1748517870584524800,4.94752490234375,-4.081668853759766,-5.307927131652832,-7.164933681488037
1748517870603333000,4.9663330078125,-4.150688648223877,-5.235134124755859,-7.178825378417969
1748517870622141400,4.985141357421875,-4.200948238372803,-5.1834187507629395,-7.187112808227539
1748517870640949800,5.00394970703125,-4.240756034851074,-5.15983247756958,-7.180703639984131
1748517870659758000,5.022758056640625,-4.268517971038818,-5.15730094909668,-7.16605806350708
1748517870678566400,5.04156640625,-4.25787878036499,-5.174558162689209,-7.159945487976074
1748517870697374700,5.060374755859375,-4.215723991394043,-5.199114799499512,-7.167096138000488
1748517870716183000,5.07918310546875,-4.14434814453125,-5.236154556274414,-7.181743144989014
1748517870734991600,5.09799169921875,-4.076841354370117,-5.282663822174072,-7.186321258544922
1748517870753800000,5.116800048828125,-4.014525413513184,-5.322847843170166,-7.1917500495910645
1748517870772608300,5.135608154296875,-3.9979734420776367,-5.344513416290283,-7.18489933013916
1748517870791416600,5.15441650390625,-4.060153484344482,-5.333225727081299,-7.158369064331055
1748517870810225000,5.173224853515625,-4.162888526916504,-5.313511848449707,-7.1138834953308105
1748517870829033200,5.192033203125,-4.211750507354736,-5.349576473236084,-7.057872772216797
1748517870847841500,5.210841552734375,-4.2008957862854,-5.432005405426025,-7.001156330108643
1748517870866650000,5.229650146484375,-4.189857006072998,-5.560281753540039,-6.906427383422852
1748517870885458400,5.24845849609375,-4.197495460510254,-5.7369279861450195,-6.755669593811035
1748517870904266800,5.267266845703125,-4.244550704956055,-5.942305564880371,-6.545470714569092
1748517870923075000,5.286074951171875,-4.321815490722656,-6.140325546264648,-6.307828903198242
1748517870941883400,5.30488330078125,-4.383432388305664,-6.306309223175049,-6.098062992095947
1748517870960691700,5.323691650390625,-4.407603740692139,-6.4618144035339355,-5.915096759796143
1748517870979500000,5.3425,-4.399614334106445,-6.618197917938232,-5.745713710784912
1748517870998308400,5.361308349609375,-4.378506183624268,-6.78892183303833,-5.5596418380737305
1748517871017116700,5.38011669921875,-4.344562530517578,-6.965461730957031,-5.364468097686768
1748517871035925000,5.398925048828125,-4.286928653717041,-7.137951374053955,-5.180953502655029
1748517871054733300,5.4177333984375,-4.192953109741211,-7.306150436401367,-5.020927429199219
1748517871073542000,5.4365419921875,-4.064539432525635,-7.460679054260254,-4.897772789001465
1748517871092350200,5.45535009765625,-3.9224483966827393,-7.597235202789307,-4.802790641784668
1748517871111158500,5.474158447265625,-3.768232583999634,-7.727751731872559,-4.717273235321045
1748517871129966800,5.492966796875,-3.602790594100952,-7.85921573638916,-4.6285014152526855
1748517871148775200,5.511775146484375,-3.4488608837127686,-7.982328414916992,-4.534111976623535
1748517871167583500,5.53058349609375,-3.292792558670044,-8.100192070007324,-4.440135478973389
1748517871186391800,5.549391845703125,-3.108340263366699,-8.214543342590332,-4.362325668334961
1748517871205200100,5.5682001953125,-2.923837184906006,-8.304359436035156,-4.319626808166504
1748517871224008400,5.587008544921875,-2.7778728008270264,-8.367196083068848,-4.294627666473389
1748517871242816800,5.605816650390625,-2.6350347995758057,-8.426730155944824,-4.268161773681641
1748517871261625000,5.624625,-2.4896509647369385,-8.48148250579834,-4.2469377517700195
1748517871280433400,5.643433349609375,-2.3794190883636475,-8.527512550354004,-4.217850685119629
1748517871299241700,5.66224169921875,-2.266505718231201,-8.582082748413086,-4.169076442718506
1748517871318050000,5.681050048828125,-2.124558448791504,-8.641554832458496,-4.120701789855957
1748517871336858400,5.6998583984375,-1.9992249011993408,-8.687697410583496,-4.086245536804199
1748517871355666700,5.718666748046875,-1.8959475755691528,-8.722081184387207,-4.0621514320373535
1748517871374475000,5.73747509765625,-1.7943049669265747,-8.753401756286621,-4.040891647338867
1748517871393283300,5.756283447265625,-1.6941264867782593,-8.782732009887695,-4.020439147949219
1748517871412091600,5.775091552734375,-1.5953092575073242,-8.810220718383789,-4.000670909881592
1748517871430900000,5.79389990234375,-1.5145100355148315,-8.839639663696289,-3.967040538787842
1748517871449708300,5.812708251953125,-1.4699739217758179,-8.870540618896484,-3.914470911026001
1748517871468516600,5.8315166015625,-1.4596586227416992,-8.904739379882812,-3.8399767875671387
1748517871487325000,5.850324951171875,-1.430387258529663,-8.947298049926758,-3.7510297298431396
1748517871506133200,5.86913330078125,-1.3250603675842285,-8.994161605834961,-3.676910161972046
1748517871524941600,5.887941650390625,-1.1664661169052124,-9.034525871276855,-3.6314024925231934
1748517871543749600,5.90674951171875,-1.0098410844802856,-9.051251411437988,-3.6366817951202393
1748517871562558000,5.925557861328125,-0.9227948188781738,-9.052994728088379,-3.655423879623413
1748517871581366300,5.9443662109375,-0.9774098992347717,-9.059890747070312,-3.6240081787109375
1748517871600174600,5.963174560546875,-1.1479820013046265,-9.06898021697998,-3.550509452819824
1748517871618983000,5.98198291015625,-1.2530900239944458,-9.080183982849121,-3.4857442378997803
1748517871637791200,6.000791259765625,-1.2642872333526611,-9.08543586730957,-3.4679715633392334
1748517871656599600,6.019599609375,-1.1992579698562622,-9.079437255859375,-3.5065643787384033
1748517871675408000,6.038407958984375,-1.1186476945877075,-9.078015327453613,-3.5367584228515625
1748517871694216200,6.05721630859375,-1.0892332792282104,-9.081249237060547,-3.5376386642456055
1748517871713024300,6.076024169921875,-1.1190705299377441,-9.081369400024414,-3.528001308441162
1748517871731832600,6.09483251953125,-1.135176181793213,-9.081177711486816,-3.523345947265625
1748517871750641000,6.113640869140625,-1.1049432754516602,-9.097249031066895,-3.4913525581359863
1748517871769449200,6.13244921875,-1.0547964572906494,-9.128868103027344,-3.423677444458008
1748517871788257500,6.151257568359375,-0.9680703282356262,-9.156418800354004,-3.375384569168091
1748517871807065900,6.17006591796875,-0.7966699600219727,-9.172685623168945,-3.3760228157043457
1748517871825874200,6.188874267578125,-0.6151154637336731,-9.17165470123291,-3.4165449142456055
1748517871844682200,6.20768212890625,-0.549838125705719,-9.16031551361084,-3.4578423500061035
1748517871863490600,6.226490478515625,-0.5939012169837952,-9.1403226852417,-3.503164291381836
1748517871882299000,6.245298828125,-0.6585639119148254,-9.114786148071289,-3.5577175617218018
1748517871901107200,6.264107177734375,-0.6795606017112732,-9.097148895263672,-3.598674774169922
1748517871919915500,6.28291552734375,-0.6397586464881897,-9.089953422546387,-3.6240642070770264
1748517871938723600,6.3017236328125,-0.5624905228614807,-9.079864501953125,-3.661975145339966
1748517871957532000,6.320531982421875,-0.46881645917892456,-9.069695472717285,-3.700166940689087
1748517871976340200,6.33934033203125,-0.3828032910823822,-9.066126823425293,-3.7187626361846924
1748517871995148500,6.3581484375,-0.32297012209892273,-9.07106876373291,-3.7123842239379883
1748517872013956600,6.37695654296875,-0.29429614543914795,-9.082749366760254,-3.686112642288208
1748517872032765000,6.395764892578125,-0.28336113691329956,-9.095015525817871,-3.6566073894500732
1748517872051573200,6.4145732421875,-0.27874261140823364,-9.104230880737305,-3.633960008621216
1748517872070381600,6.433381591796875,-0.2957749366760254,-9.108291625976562,-3.6224207878112793
1748517872089189600,6.452189697265625,-0.3393419682979584,-9.107746124267578,-3.619971513748169
1748517872107998000,6.470998046875,-0.3907792270183563,-9.102593421936035,-3.627739191055298
1748517872126806300,6.48980615234375,-0.435762882232666,-9.093313217163086,-3.645840644836426
1748517872145614300,6.5086142578125,-0.4747517704963684,-9.083183288574219,-3.666165590286255
1748517872164422700,6.527422607421875,-0.5164464116096497,-9.075949668884277,-3.6784250736236572
1748517872183231000,6.54623095703125,-0.5615918040275574,-9.06727123260498,-3.693183660507202
1748517872202039000,6.5650390625,-0.6115419864654541,-9.050455093383789,-3.726346015930176
1748517872220847400,6.583847412109375,-0.6767632365226746,-9.02726936340332,-3.7710468769073486
1748517872239655700,6.60265576171875,-0.78102046251297,-8.998393058776855,-3.8195972442626953
1748517872258463700,6.621463623046875,-0.9374906420707703,-8.960076332092285,-3.87408447265625
1748517872277272000,6.64027197265625,-1.1208717823028564,-8.909345626831055,-3.9417765140533447
1748517872296080400,6.659080322265625,-1.3106741905212402,-8.850773811340332,-4.014515399932861
1748517872314888400,6.677888427734375,-1.5005817413330078,-8.795392990112305,-4.069361209869385
1748517872333696800,6.69669677734375,-1.6614036560058594,-8.749065399169922,-4.1065778732299805
1748517872352504800,6.7155048828125,-1.783410668373108,-8.706621170043945,-4.145428657531738
1748517872371313200,6.734313232421875,-1.894167423248291,-8.66123104095459,-4.191132545471191
1748517872390121500,6.75312158203125,-2.009161949157715,-8.615826606750488,-4.23098087310791
1748517872408929500,6.771929443359375,-2.119220018386841,-8.57528305053711,-4.259557723999023
1748517872427737900,6.79073779296875,-2.2377355098724365,-8.539883613586426,-4.270050525665283
1748517872446546000,6.8095458984375,-2.367863416671753,-8.51124095916748,-4.257040023803711
1748517872465354200,6.828354248046875,-2.5165963172912598,-8.482454299926758,-4.22907829284668
1748517872484162600,6.84716259765625,-2.675740957260132,-8.446221351623535,-4.203825950622559
1748517872502970600,6.865970703125,-2.8348116874694824,-8.402230262756348,-4.187690734863281
1748517872521779000,6.884779052734375,-3.010550022125244,-8.353876113891602,-4.161697864532471
1748517872540587000,6.9035869140625,-3.182339668273926,-8.302007675170898,-4.13760232925415
1748517872559395000,6.92239501953125,-3.3471248149871826,-8.242585182189941,-4.126368045806885
1748517872578203400,6.941203369140625,-3.528688669204712,-8.17293643951416,-4.113617420196533
1748517872597011700,6.96001171875,-3.729905128479004,-8.0872802734375,-4.105372428894043
1748517872615819800,6.97881982421875,-3.9812419414520264,-7.9831037521362305,-4.073101043701172
1748517872634627800,6.9976279296875,-4.252220630645752,-7.861130714416504,-4.036288738250732
1748517872653436200,7.016436279296875,-4.519623756408691,-7.718677043914795,-4.020622730255127
1748517872672244200,7.035244140625,-4.795106887817383,-7.561797618865967,-3.9995691776275635
1748517872691052500,7.054052490234375,-5.05148983001709,-7.395133972167969,-3.9956021308898926
1748517872709860600,7.072860595703125,-5.290313720703125,-7.233644962310791,-3.9821274280548096
1748517872728669000,7.0916689453125,-5.529458045959473,-7.057724952697754,-3.972909450531006
1748517872747477000,7.11047705078125,-5.7663726806640625,-6.865965366363525,-3.972134828567505
1748517872766285300,7.129285400390625,-6.008886814117432,-6.665775299072266,-3.953620195388794
1748517872785093400,7.14809326171875,-6.277024745941162,-6.431931495666504,-3.924232006072998
1748517872803901400,7.1669013671875,-6.539233207702637,-6.180868148803711,-3.899447441101074
1748517872822709800,7.185709716796875,-6.780956745147705,-5.9340410232543945,-3.8699066638946533
1748517872841517800,7.204517822265625,-7.001489162445068,-5.693818092346191,-3.837963581085205
1748517872860326100,7.223326171875,-7.233335971832275,-5.428967475891113,-3.791510581970215
1748517872879134200,7.24213427734375,-7.464146137237549,-5.138800621032715,-3.7482857704162598
1748517872897942300,7.2609423828125,-7.672280311584473,-4.859952926635742,-3.699643135070801
1748517872916750600,7.27975048828125,-7.845790863037109,-4.6313910484313965,-3.628246545791626
1748517872935558700,7.29855859375,-7.99578857421875,-4.4582953453063965,-3.515871047973633
1748517872954366700,7.31736669921875,-8.121352195739746,-4.290812015533447,-3.435544490814209
1748517872973175000,7.336175048828125,-8.230240821838379,-4.106423377990723,-3.401588201522827
1748517872991983000,7.354983154296875,-8.3472261428833,-3.894521474838257,-3.3655483722686768
1748517873010791200,7.373791259765625,-8.481779098510742,-3.6801068782806396,-3.269041061401367
1748517873029599500,7.392599609375,-8.613164901733398,-3.4953808784484863,-3.125074625015259
1748517873048407600,7.411407470703125,-8.737309455871582,-3.324918508529663,-2.9622178077697754
1748517873067215600,7.430215576171875,-8.844778060913086,-3.166910171508789,-2.8126413822174072
1748517873086024000,7.44902392578125,-8.931991577148438,-3.003408670425415,-2.7146730422973633
1748517873104832000,7.46783203125,-9.014421463012695,-2.8257620334625244,-2.63166880607605
1748517873123640000,7.48664013671875,-9.087817192077637,-2.657008409500122,-2.5538747310638428
1748517873142448000,7.5054482421875,-9.147165298461914,-2.5409891605377197,-2.4582760334014893
1748517873161256400,7.52425634765625,-9.20326042175293,-2.4742891788482666,-2.312631130218506
1748517873180064500,7.543064453125,-9.25863265991211,-2.439495086669922,-2.1206040382385254
1748517873198872600,7.56187255859375,-9.304445266723633,-2.415937662124634,-1.9393095970153809
1748517873217680600,7.5806806640625,-9.337604522705078,-2.380239486694336,-1.820435643196106
1748517873236489000,7.599489013671875,-9.361209869384766,-2.3258745670318604,-1.7687416076660156
1748517873255297000,7.618297119140625,-9.383296966552734,-2.2711286544799805,-1.7222344875335693
1748517873274105000,7.63710498046875,-9.407785415649414,-2.215485095977783,-1.6599968671798706
1748517873292913200,7.6559130859375,-9.429999351501465,-2.1553854942321777,-1.612395167350769
1748517873311721200,7.67472119140625,-9.445694923400879,-2.109121561050415,-1.58140230178833
1748517873330529300,7.693529296875,-9.457014083862305,-2.076383590698242,-1.5568838119506836
1748517873349337600,7.712337646484375,-9.464987754821777,-2.055264472961426,-1.5363223552703857
1748517873368145700,7.731145751953125,-9.466105461120605,-2.0599398612976074,-1.5231178998947144
1748517873386953700,7.74995361328125,-9.458965301513672,-2.1028411388397217,-1.5087825059890747
1748517873405761800,7.76876171875,-9.451408386230469,-2.201974391937256,-1.4115819931030273
1748517873424569900,7.78756982421875,-9.437891006469727,-2.399430751800537,-1.1572935581207275
1748517873443378000,7.8063779296875,-9.40190315246582,-2.6520838737487793,-0.8608502745628357
1748517873462186000,7.82518603515625,-9.347103118896484,-2.8723843097686768,-0.7426116466522217
1748517873480994000,7.843994140625,-9.294805526733398,-3.0176286697387695,-0.8190776109695435
1748517873499802000,7.862802001953125,-9.25786304473877,-3.11824369430542,-0.859599769115448
1748517873528014300,7.891014404296875,-9.245580673217773,-3.1500890254974365,-0.8755360841751099
1748517873546822400,7.909822509765625,-9.232531547546387,-3.1654317378997803,-0.9543484449386597
1748517873565630500,7.92863037109375,-9.196517944335938,-3.218998908996582,-1.1101799011230469
1748517873584438500,7.9474384765625,-9.149059295654297,-3.305300235748291,-1.2410067319869995
1748517873603246600,7.96624658203125,-9.101923942565918,-3.414280414581299,-1.2915351390838623
1748517873622054700,7.9850546875,-9.055242538452148,-3.5431342124938965,-1.2724717855453491
1748517873640862700,8.00386279296875,-9.008971214294434,-3.6653201580047607,-1.2546873092651367
1748517873659670800,8.0226708984375,-8.959800720214844,-3.778571128845215,-1.270736575126648
1748517873678478800,8.041478759765624,-8.905631065368652,-3.896399974822998,-1.2954498529434204
1748517873697287000,8.060286865234374,-8.842628479003906,-4.038785457611084,-1.2909399271011353
1748517873716095000,8.079094970703125,-8.778400421142578,-4.195130825042725,-1.2292087078094482
1748517873734903000,8.097903076171875,-8.69971752166748,-4.376159191131592,-1.1552165746688843
1748517873753711000,8.116711181640625,-8.616168022155762,-4.541865825653076,-1.1417068243026733
1748517873772519200,8.135519287109375,-8.53852367401123,-4.687746524810791,-1.1353611946105957
1748517873791327200,8.1543271484375,-8.437090873718262,-4.867035388946533,-1.1392316818237305
1748517873810135300,8.17313525390625,-8.338150978088379,-5.029528617858887,-1.1616657972335815
1748517873828943400,8.191943359375,-8.240714073181152,-5.187670707702637,-1.1615071296691895
1748517873847751400,8.21075146484375,-8.137866973876953,-5.341641902923584,-1.1884292364120483
1748517873866559500,8.2295595703125,-8.042898178100586,-5.470483303070068,-1.24739408493042
1748517873885367600,8.248367431640625,-7.950610637664795,-5.588593006134033,-1.3136987686157227
1748517873904175600,8.267175537109376,-7.853631496429443,-5.7090373039245605,-1.3775887489318848
1748517873922983700,8.285983642578126,-7.760890960693359,-5.817957878112793,-1.4457950592041016
1748517873941791500,8.30479150390625,-7.6727399826049805,-5.918817520141602,-1.505674958229065
1748517873960599600,8.323599609375,-7.576916694641113,-6.0245137214660645,-1.5703352689743042
1748517873979407600,8.34240771484375,-7.487037658691406,-6.116358280181885,-1.644633173942566
1748517873998215700,8.361215576171874,-7.397923946380615,-6.209129333496094,-1.699360966682434
1748517874017023700,8.380023681640624,-7.292896270751953,-6.316949367523193,-1.7550528049468994
1748517874035831800,8.398831787109375,-7.184633731842041,-6.41942024230957,-1.8282428979873657
1748517874054639900,8.417639892578125,-7.082228660583496,-6.512782096862793,-1.8963360786437988
1748517874073447700,8.43644775390625,-6.972826957702637,-6.612123489379883,-1.9570093154907227
1748517874092255700,8.455255859375,-6.848952770233154,-6.723372459411621,-2.0145695209503174
1748517874111063800,8.474063720703125,-6.732450485229492,-6.821423530578613,-2.0767011642456055
1748517874129872000,8.492871826171875,-6.633474826812744,-6.902751922607422,-2.1258912086486816
1748517874148680000,8.511679931640625,-6.529231548309326,-6.989734172821045,-2.164055109024048
1748517874167487700,8.53048779296875,-6.428036212921143,-7.069723606109619,-2.2067463397979736
1748517874186295800,8.5492958984375,-6.340295314788818,-7.131689071655273,-2.2605414390563965
1748517874205103900,8.568103759765625,-6.263238430023193,-7.183228492736816,-2.311591625213623
1748517874223912000,8.586911865234375,-6.196245193481445,-7.225154876708984,-2.3609468936920166
1748517874242720000,8.605719970703126,-6.133503437042236,-7.2643208503723145,-2.4041976928710938
1748517874261527800,8.62452783203125,-6.070837497711182,-7.305338382720947,-2.4387197494506836
1748517874280336000,8.6433359375,-6.0131378173828125,-7.342687129974365,-2.4693126678466797
1748517874299144000,8.66214404296875,-5.959601879119873,-7.375467777252197,-2.501201868057251
1748517874317951700,8.68095166015625,-5.920898914337158,-7.391955852508545,-2.5440781116485596
1748517874336759800,8.699759765625,-5.89678955078125,-7.403114318847656,-2.5675203800201416
1748517874355567900,8.71856787109375,-5.887684345245361,-7.409409999847412,-2.570254325866699
1748517874374376000,8.7373759765625,-5.881791114807129,-7.416778087615967,-2.5624828338623047
1748517874393183700,8.756183837890624,-5.883856773376465,-7.416837215423584,-2.5575661659240723
1748517874411991800,8.77499169921875,-5.895758628845215,-7.406630039215088,-2.559736490249634
1748517874430800000,8.7937998046875,-5.9170331954956055,-7.390084743499756,-2.5584661960601807
1748517874449607700,8.812607666015625,-5.940406322479248,-7.373277187347412,-2.5527923107147217
1748517874468415700,8.831415771484375,-5.967551231384277,-7.354540824890137,-2.543510913848877
1748517874487223800,8.850223876953125,-6.000400543212891,-7.327416896820068,-2.544509172439575
1748517874506031600,8.869031494140625,-6.038027763366699,-7.294847011566162,-2.549081802368164
1748517874524839700,8.887839599609375,-6.091773509979248,-7.248897552490234,-2.5522868633270264
1748517874543647500,8.9066474609375,-6.158568382263184,-7.194788932800293,-2.5450820922851562
1748517874562455600,8.92545556640625,-6.238986492156982,-7.1344099044799805,-2.5190515518188477
1748517874581263600,8.944263671875,-6.325891494750977,-7.067949295043945,-2.489495277404785
1748517874600071400,8.963071533203125,-6.405362606048584,-7.004307746887207,-2.4660465717315674
1748517874618879500,8.98187939453125,-6.479794979095459,-6.941771030426025,-2.448359489440918
1748517874637687600,9.0006875,-6.561412334442139,-6.868222713470459,-2.4383959770202637
1748517874656495400,9.019495361328126,-6.650417327880859,-6.793980598449707,-2.405027151107788
1748517874675303400,9.038303466796876,-6.76010799407959,-6.69992733001709,-2.3626904487609863
1748517874694111200,9.057111328125,-6.8992486000061035,-6.559351921081543,-2.354924201965332
1748517874712919300,9.075919189453124,-7.061695098876953,-6.393889427185059,-2.328313112258911
1748517874731727000,9.09472705078125,-7.2332305908203125,-6.2290263175964355,-2.2472174167633057
1748517874750535200,9.11353515625,-7.396678447723389,-6.064030647277832,-2.1649606227874756
1748517874769343200,9.13234326171875,-7.548176288604736,-5.895912170410156,-2.105624198913574
1748517874788151000,9.151151123046875,-7.6992716789245605,-5.71995210647583,-2.0429763793945312
1748517874806959000,9.169958984375,-7.853177547454834,-5.533663749694824,-1.9688969850540161
1748517874825767000,9.188766845703125,-7.999144554138184,-5.346887588500977,-1.8960156440734863
1748517874844574700,9.20757470703125,-8.133406639099121,-5.165735721588135,-1.8257237672805786
1748517874863382800,9.2263828125,-8.265508651733398,-4.980587005615234,-1.7451388835906982
1748517874882190800,9.24519091796875,-8.39860725402832,-4.780460834503174,-1.6676253080368042
1748517874900998700,9.26399853515625,-8.529006958007812,-4.573944091796875,-1.5828630924224854
1748517874919806700,9.282806640625,-8.65278434753418,-4.369406700134277,-1.4859343767166138
1748517874938614500,9.301614501953125,-8.767936706542969,-4.161431312561035,-1.4057546854019165
1748517874957422300,9.32042236328125,-8.87230110168457,-3.9557807445526123,-1.343295693397522
1748517874976230400,9.33923046875,-8.965930938720703,-3.7588629722595215,-1.2858495712280273
1748517874995038200,9.3580380859375,-9.049899101257324,-3.570829153060913,-1.2324327230453491
1748517875013846300,9.37684619140625,-9.125563621520996,-3.39172101020813,-1.1792819499969482
1748517875032654000,9.395654052734375,-9.191312789916992,-3.2284111976623535,-1.125840663909912
1748517875051462100,9.414462158203126,-9.249106407165527,-3.07468318939209,-1.0820099115371704
1748517875070270000,9.43327001953125,-9.29805850982666,-2.9371516704559326,-1.0438616275787354
1748517875089078000,9.452078125,-9.337516784667969,-2.829033374786377,-0.9888052940368652
1748517875107885800,9.4708857421875,-9.367252349853516,-2.75057315826416,-0.9269880652427673
1748517875126693600,9.489693603515626,-9.388259887695312,-2.696293354034424,-0.8723399043083191
1748517875145501700,9.508501708984374,-9.402368545532227,-2.668511152267456,-0.8030529618263245
1748517875164309500,9.5273095703125,-9.408426284790039,-2.670161724090576,-0.7225920557975769
1748517875183117300,9.546117431640624,-9.408836364746094,-2.688150644302368,-0.6465557813644409
1748517875201925400,9.56492529296875,-9.401238441467285,-2.729952335357666,-0.5783350467681885
1748517875220733200,9.583733154296874,-9.384075164794922,-2.802534580230713,-0.5052778720855713
1748517875239541200,9.602541259765625,-9.353475570678711,-2.9151251316070557,-0.4300118088722229
1748517875258349000,9.62134912109375,-9.305834770202637,-3.0713891983032227,-0.37201234698295593
1748517875277156900,9.640156982421875,-9.241254806518555,-3.2640607357025146,-0.3398568332195282
1748517875295965000,9.65896484375,-9.160865783691406,-3.4835829734802246,-0.3370043635368347
1748517875314772700,9.677772705078125,-9.068924903869629,-3.7149710655212402,-0.3521180748939514
1748517875333580500,9.69658056640625,-8.972575187683105,-3.940431833267212,-0.3691678047180176
1748517875352388600,9.715388671875,-8.879241943359375,-4.143671035766602,-0.3993186354637146
1748517875371196400,9.734196533203125,-8.80206298828125,-4.3031229972839355,-0.4209826588630676
1748517875390004200,9.753004150390625,-8.752593040466309,-4.401150703430176,-0.43861067295074463
1748517875408812300,9.771812255859375,-8.727241516113281,-4.448304176330566,-0.4671459197998047
1748517875427620000,9.7906201171875,-8.7094087600708,-4.478903293609619,-0.5059712529182434
1748517875446428000,9.809427978515625,-8.679032325744629,-4.533126354217529,-0.5436493158340454
1748517875465235700,9.828235595703125,-8.63010025024414,-4.6211934089660645,-0.5799320936203003
1748517875484043800,9.847043701171875,-8.559618949890137,-4.74643611907959,-0.6121041178703308
1748517875502851600,9.8658515625,-8.471306800842285,-4.8972344398498535,-0.651486337184906
1748517875521659400,9.884659423828126,-8.36834716796875,-5.064526081085205,-0.7012324929237366
1748517875540467200,9.90346728515625,-8.261621475219727,-5.228815078735352,-0.7586063742637634
1748517875559275300,9.922275146484376,-8.156305313110352,-5.383115291595459,-0.8167846202850342
1748517875578083000,9.9410830078125,-8.05600643157959,-5.522904396057129,-0.876741349697113
1748517875596891000,9.959890869140626,-7.962741374969482,-5.6482977867126465,-0.9283742308616638
1748517875615698700,9.97869873046875,-7.870145320892334,-5.7682929039001465,-0.9787747859954834
1748517875634506500,9.997506591796874,-7.78075647354126,-5.878391265869141,-1.0366908311843872
1748517875653314600,10.016314453125,-7.701375961303711,-5.971721172332764,-1.0944113731384277
1748517875672122400,10.035122314453124,-7.637113571166992,-6.04633092880249,-1.1343594789505005
1748517875690930200,10.05393017578125,-7.56573486328125,-6.132619857788086,-1.1493594646453857
1748517875709738000,10.072738037109374,-7.504969596862793,-6.206812381744385,-1.1494767665863037
1748517875728545800,10.0915458984375,-7.420898914337158,-6.311254501342773,-1.1263765096664429
1748517875747353900,10.110353759765625,-7.3064799308776855,-6.440921306610107,-1.1402919292449951
1748517875766161700,10.12916162109375,-7.183574199676514,-6.566535949707031,-1.2030144929885864
1748517875784969500,10.147969482421875,-7.052122592926025,-6.69174861907959,-1.2878117561340332
1748517875803777300,10.16677734375,-6.94144344329834,-6.785341739654541,-1.3949471712112427
1748517875822585000,10.185585205078125,-6.854651927947998,-6.854162216186523,-1.4847886562347412
1748517875841393000,10.204392822265625,-6.793002605438232,-6.897881984710693,-1.5635607242584229
1748517875860200700,10.22320068359375,-6.738542079925537,-6.933257579803467,-1.6408467292785645
1748517875879008500,10.242008544921875,-6.666211128234863,-6.989758491516113,-1.6956689357757568
1748517875897816600,10.260816650390625,-6.595728397369385,-7.047390460968018,-1.73235023021698
1748517875916624400,10.279624267578125,-6.5313286781311035,-7.100344657897949,-1.759898066520691
1748517875935432200,10.29843212890625,-6.459653854370117,-7.154991626739502,-1.8025940656661987
1748517875954240000,10.317239990234375,-6.389194488525391,-7.202695369720459,-1.8627310991287231
1748517875973047800,10.3360478515625,-6.330460071563721,-7.239682197570801,-1.91902756690979
1748517875991855600,10.354855712890625,-6.2852277755737305,-7.269289493560791,-1.9554369449615479
1748517876010663400,10.373663330078125,-6.231475830078125,-7.305657863616943,-1.991600513458252
1748517876029471200,10.39247119140625,-6.174743175506592,-7.344761848449707,-2.02420711517334
1748517876048279000,10.411279052734375,-6.122432231903076,-7.378687381744385,-2.0594136714935303
1748517876067086800,10.4300869140625,-6.076028823852539,-7.404609203338623,-2.103339910507202
1748517876085894700,10.448894775390626,-6.050378322601318,-7.41316556930542,-2.146688938140869
1748517876104702500,10.467702392578126,-6.030641078948975,-7.4192023277282715,-2.1811015605926514
1748517876123510300,10.48651025390625,-6.022036552429199,-7.418811798095703,-2.206058979034424
1748517876142318000,10.505318115234376,-6.031063556671143,-7.406602382659912,-2.2223610877990723
1748517876161126000,10.5241259765625,-6.039949893951416,-7.3978776931762695,-2.2272865772247314
1748517876179933700,10.54293359375,-6.043768882751465,-7.398421764373779,-2.2150821685791016
1748517876198741500,10.561741455078124,-6.0600128173828125,-7.392144203186035,-2.1915366649627686
1748517876217549300,10.58054931640625,-6.084543228149414,-7.381399631500244,-2.159550189971924
1748517876236357000,10.599357177734374,-6.093356132507324,-7.384228706359863,-2.1247525215148926
1748517876255165000,10.6181650390625,-6.093260765075684,-7.391993522644043,-2.0978574752807617
1748517876273972700,10.63697265625,-6.10785436630249,-7.383692264556885,-2.084606409072876
1748517876292780500,10.655780517578124,-6.119887828826904,-7.381651878356934,-2.0563507080078125
1748517876311588400,10.67458837890625,-6.1358137130737305,-7.371740341186523,-2.0444116592407227
1748517876330396200,10.693396240234375,-6.147024631500244,-7.356264114379883,-2.0663654804229736
1748517876349204000,10.712203857421875,-6.158873081207275,-7.344163417816162,-2.0741119384765625
1748517876368011800,10.73101171875,-6.160571575164795,-7.340137004852295,-2.0832972526550293
1748517876386819600,10.749819580078125,-6.151731491088867,-7.341000556945801,-2.1062536239624023
1748517876405627100,10.768627197265625,-6.130272388458252,-7.352609157562256,-2.1282129287719727
1748517876424435000,10.78743505859375,-6.098377227783203,-7.375702857971191,-2.1399013996124268
1748517876443242800,10.80624267578125,-6.077468395233154,-7.389357566833496,-2.1522445678710938
1748517876462050600,10.825050537109375,-6.078090667724609,-7.3801493644714355,-2.181877613067627
1748517876480858400,10.8438583984375,-6.101722240447998,-7.357396602630615,-2.1927335262298584
1748517876499666200,10.862666259765625,-6.154475212097168,-7.324641704559326,-2.154632806777954
1748517876518474000,10.881473876953125,-6.227035045623779,-7.27217435836792,-2.123652696609497
1748517876537281800,10.90028173828125,-6.302779197692871,-7.2028021812438965,-2.1365857124328613
1748517876556089300,10.91908935546875,-6.373398780822754,-7.13428258895874,-2.1568925380706787
1748517876574897200,10.937897216796875,-6.441069602966309,-7.067938804626465,-2.1742208003997803
1748517876593705000,10.956705078125,-6.510097980499268,-6.996067523956299,-2.2009201049804688
1748517876612512800,10.9755126953125,-6.560911178588867,-6.937218189239502,-2.2360334396362305
1748517876631320600,10.994320556640625,-6.571643352508545,-6.918702125549316,-2.2617383003234863
1748517876650128400,11.01312841796875,-6.56797981262207,-6.914585590362549,-2.2848472595214844
1748517876668936000,11.03193603515625,-6.588259696960449,-6.880716323852539,-2.328296184539795
1748517876687743700,11.05074365234375,-6.6206955909729,-6.834951877593994,-2.370696544647217
1748517876706551600,11.069551513671875,-6.654519557952881,-6.8028178215026855,-2.3684237003326416
1748517876725359400,11.088359375,-6.701691627502441,-6.7733073234558105,-2.319484233856201
1748517876744167200,11.107167236328126,-6.779014587402344,-6.722488880157471,-2.241313934326172
1748517876762974700,11.125974609375,-6.885919094085693,-6.6500163078308105,-2.1288001537323
1748517876781782500,11.144782470703126,-6.995482921600342,-6.5752177238464355,-2.0000271797180176
1748517876800590300,11.16359033203125,-7.0958404541015625,-6.496948719024658,-1.899764060974121
1748517876819398100,11.182398193359376,-7.181370258331299,-6.421447277069092,-1.8339372873306274
1748517876838206000,11.2012060546875,-7.258893966674805,-6.350497245788574,-1.7748287916183472
1748517876857013500,11.220013427734376,-7.337103366851807,-6.281698226928711,-1.6963447332382202
1748517876875821300,11.2388212890625,-7.413811206817627,-6.210565090179443,-1.6231690645217896
1748517876894629000,11.257629150390626,-7.483404159545898,-6.135924339294434,-1.5872864723205566
1748517876913436700,11.276436767578126,-7.5453200340271,-6.064504146575928,-1.5685386657714844
1748517876932244500,11.295244384765626,-7.6112518310546875,-5.988037586212158,-1.5435813665390015
1748517876951052300,11.31405224609375,-7.686156749725342,-5.895869255065918,-1.5271236896514893
1748517876969860000,11.332860107421874,-7.764466285705566,-5.79207706451416,-1.5281686782836914
1748517876988667600,11.351667724609374,-7.837990760803223,-5.691845417022705,-1.5294358730316162
1748517877007475500,11.370475341796874,-7.90855073928833,-5.591991901397705,-1.5345507860183716
1748517877026283300,11.389283203125,-7.974127769470215,-5.495533466339111,-1.5436216592788696
1748517877045090800,11.4080908203125,-8.03624439239502,-5.404089450836182,-1.544335961341858
1748517877063898600,11.426898681640624,-8.102479934692383,-5.306079387664795,-1.5380942821502686
1748517877082706400,11.44570654296875,-8.171570777893066,-5.199774742126465,-1.5356327295303345
1748517877101514000,11.464513916015624,-8.246357917785645,-5.079336166381836,-1.5389350652694702
1748517877120321800,11.48332177734375,-8.324173927307129,-4.950608253479004,-1.5394796133041382
1748517877139129600,11.502129638671875,-8.402287483215332,-4.814420700073242,-1.5470298528671265
1748517877157937200,11.520937255859375,-8.483678817749023,-4.666479587554932,-1.5561323165893555
1748517877176745000,11.539744873046875,-8.568514823913574,-4.5018415451049805,-1.5761842727661133
1748517877195552800,11.558552734375,-8.656688690185547,-4.31222677230835,-1.623830795288086
1748517877214360300,11.5773603515625,-8.747264862060547,-4.108964443206787,-1.6649770736694336
1748517877233168100,11.596168212890625,-8.839527130126953,-3.8849611282348633,-1.71470308303833
1748517877251975700,11.6149755859375,-8.934305191040039,-3.6324830055236816,-1.7758480310440063
1748517877270783500,11.633783447265625,-9.037075996398926,-3.3495757579803467,-1.8116260766983032
1748517877289591300,11.65259130859375,-9.147391319274902,-3.1159982681274414,-1.669182300567627
1748517877308398800,11.67139892578125,-9.235057830810547,-2.9698917865753174,-1.436602234840393
1748517877327206700,11.69020654296875,-9.288459777832031,-2.8494820594787598,-1.3324216604232788
1748517877346014200,11.70901416015625,-9.336491584777832,-2.6823203563690186,-1.3436706066131592
1748517877364822000,11.727822021484375,-9.401053428649902,-2.493567705154419,-1.2540788650512695
1748517877383629800,11.7466298828125,-9.455329895019531,-2.31819748878479,-1.1802890300750732
1748517877402437400,11.765437255859375,-9.49389934539795,-2.164684534072876,-1.1620656251907349
1748517877421245200,11.7842451171875,-9.518457412719727,-2.024880886077881,-1.2121120691299438
1748517877440052700,11.803052734375,-9.539670944213867,-1.883888602256775,-1.2712336778640747
1748517877458860500,11.821860595703125,-9.559340476989746,-1.744409441947937,-1.321521520614624
1748517877477668000,11.840668212890625,-9.569755554199219,-1.62509286403656,-1.3961480855941772
1748517877496476000,11.859475830078125,-9.575370788574219,-1.5328623056411743,-1.4604750871658325
1748517877515283500,11.878283447265625,-9.586198806762695,-1.4633907079696655,-1.4607067108154297
1748517877534091300,11.89709130859375,-9.602066993713379,-1.4106674194335938,-1.4073781967163086
1748517877552899000,11.915899169921875,-9.619932174682617,-1.3651001453399658,-1.3280750513076782
1748517877571706600,11.93470654296875,-9.64274787902832,-1.3067023754119873,-1.216687560081482
1748517877590514400,11.953514404296875,-9.67290210723877,-1.2252944707870483,-1.050716519355774
1748517877609322000,11.972322021484375,-9.70170783996582,-1.119486927986145,-0.8910692930221558
1748517877628129800,11.9911298828125,-9.724757194519043,-1.0015664100646973,-0.7722451090812683
1748517877646937300,12.009937255859375,-9.74255084991455,-0.8958957195281982,-0.6711653470993042
1748517877665745200,12.0287451171875,-9.755236625671387,-0.8163027167320251,-0.5825726389884949
1748517877684552700,12.047552734375,-9.76262378692627,-0.7756105065345764,-0.5098953247070312
1748517877703360500,12.066360595703125,-9.764298439025879,-0.7848668098449707,-0.4613601565361023
1748517877722168000,12.08516796875,-9.760929107666016,-0.8421560525894165,-0.4306109845638275
1748517877740975600,12.1039755859375,-9.754005432128906,-0.9321867823600769,-0.40098458528518677
1748517877759783400,12.122783447265626,-9.744607925415039,-1.0336865186691284,-0.3801130950450897
1748517877778591000,12.141591064453126,-9.732011795043945,-1.1453633308410645,-0.38270682096481323
1748517877797398800,12.160398681640626,-9.717589378356934,-1.2520872354507446,-0.41367655992507935
1748517877816206300,12.179206298828126,-9.70169734954834,-1.3469854593276978,-0.4827894866466522
1748517877835014100,12.19801416015625,-9.682305335998535,-1.44356107711792,-0.5826445817947388
1748517877853821700,12.21682177734375,-9.659621238708496,-1.5468769073486328,-0.6850364208221436
1748517877872629200,12.235629150390626,-9.631680488586426,-1.6697396039962769,-0.7830144166946411
1748517877891437000,12.25443701171875,-9.596179962158203,-1.8196696043014526,-0.8789430260658264
1748517877910244600,12.27324462890625,-9.552421569824219,-1.997879981994629,-0.9644286632537842
1748517877929052400,12.292052490234376,-9.503826141357422,-2.1903254985809326,-1.0247663259506226
1748517877947860000,12.31085986328125,-9.45009994506836,-2.398918867111206,-1.0541325807571411
1748517877966667500,12.32966748046875,-9.384825706481934,-2.635620594024658,-1.0718892812728882
1748517877985475300,12.348475341796876,-9.30556869506836,-2.8943798542022705,-1.095151424407959
1748517878004283000,12.367282958984376,-9.210594177246094,-3.172417640686035,-1.1274343729019165
1748517878023090700,12.386090576171876,-9.101981163024902,-3.4597582817077637,-1.163788080215454
1748517878041898200,12.404898193359376,-8.984713554382324,-3.7474935054779053,-1.1838836669921875
1748517878060705800,12.423705810546876,-8.863260269165039,-4.02095365524292,-1.2020528316497803
1748517878079513600,12.442513671875,-8.741637229919434,-4.266521453857422,-1.2453793287277222
1748517878098321200,12.461321044921876,-8.61233139038086,-4.494948387145996,-1.3392457962036133
1748517878117128700,12.480128662109376,-8.475540161132812,-4.711819171905518,-1.4609485864639282
1748517878135936500,12.4989365234375,-8.327264785766602,-4.923029899597168,-1.6095999479293823
1748517878154744000,12.517744140625,-8.168501853942871,-5.127706527709961,-1.7755522727966309
1748517878173551600,12.536551513671874,-7.99388313293457,-5.3370161056518555,-1.9453727006912231
1748517878192359400,12.555359375,-7.805386543273926,-5.551997661590576,-2.1027724742889404
1748517878211167000,12.5741669921875,-7.613698482513428,-5.7588958740234375,-2.244345188140869
1748517878229974500,12.592974609375,-7.413398742675781,-5.961648464202881,-2.381316661834717
1748517878248782300,12.6117822265625,-7.211706638336182,-6.151522636413574,-2.5140507221221924
1748517878267590000,12.63058984375,-7.015369415283203,-6.333212852478027,-2.6163713932037354
1748517878286397400,12.6493974609375,-6.82398796081543,-6.50990104675293,-2.6878914833068848
1748517878305205200,12.668205322265624,-6.628594875335693,-6.684499263763428,-2.7476513385772705
1748517878333416700,12.696416748046875,-6.296110153198242,-6.950931072235107,-2.865997552871704
1748517878352224300,12.715224365234375,-6.082150936126709,-7.099033355712891,-2.963369607925415
1748517878371031800,12.73403173828125,-5.896632671356201,-7.213814735412598,-3.059570789337158
1748517878389839400,12.75283935546875,-5.726247310638428,-7.319541931152344,-3.131260871887207
1748517878408647200,12.771647216796875,-5.5536322593688965,-7.445435047149658,-3.145321846008301
1748517878427454700,12.790454833984375,-5.387186050415039,-7.579957485198975,-3.1133368015289307
1748517878446262300,12.80926220703125,-5.236529350280762,-7.706406593322754,-3.0594842433929443
1748517878465069800,12.82806982421875,-5.096343517303467,-7.817601203918457,-3.0137648582458496
1748517878483877600,12.846877685546875,-4.964099884033203,-7.9184041023254395,-2.971022367477417
1748517878502685200,12.865685302734375,-4.829052448272705,-8.02215576171875,-2.9147324562072754
1748517878521492700,12.88449267578125,-4.711369514465332,-8.112213134765625,-2.8575146198272705
1748517878540300300,12.90330029296875,-4.634176731109619,-8.173306465148926,-2.80924654006958
1748517878559107800,12.92210791015625,-4.60274076461792,-8.206442832946777,-2.7639577388763428
1748517878577915600,12.94091552734375,-4.612192153930664,-8.217429161071777,-2.7151310443878174
1748517878596723200,12.95972314453125,-4.634188652038574,-8.222269058227539,-2.6625120639801025
1748517878615530800,12.97853076171875,-4.653567314147949,-8.228736877441406,-2.608177661895752
1748517878634338300,12.99733837890625,-4.664018630981445,-8.230090141296387,-2.5851378440856934
1748517878653145900,13.016145751953125,-4.680448532104492,-8.21794319152832,-2.5940701961517334
1748517878671953700,13.03495361328125,-4.746898174285889,-8.183005332946777,-2.583751678466797
1748517878690761200,13.05376123046875,-4.8509521484375,-8.130643844604492,-2.5556366443634033
1748517878709568800,13.07256884765625,-4.968662261962891,-8.05929946899414,-2.555479049682617
1748517878728376300,13.091376220703125,-5.074702262878418,-7.995039939880371,-2.5489463806152344
1748517878747183900,13.110183837890625,-5.14889669418335,-7.946768283843994,-2.551103353500366
1748517878765991700,13.12899169921875,-5.226336479187012,-7.90568208694458,-2.521108627319336
1748517878784799200,13.14779931640625,-5.342523097991943,-7.856170654296875,-2.4307236671447754
1748517878803606800,13.166606689453126,-5.50098991394043,-7.766050815582275,-2.3659985065460205
1748517878822414300,13.185414306640626,-5.642889499664307,-7.669234275817871,-2.3475587368011475
1748517878841222000,13.204221923828126,-5.773653507232666,-7.580897808074951,-2.3163135051727295
1748517878860029400,13.223029541015626,-5.915977954864502,-7.4798736572265625,-2.2854068279266357
1748517878878837000,13.2418369140625,-6.065145969390869,-7.368780136108398,-2.2551016807556152
1748517878897644800,13.260644775390626,-6.190154075622559,-7.275768280029297,-2.217109441757202
1748517878916452400,13.279452392578126,-6.282069206237793,-7.195969104766846,-2.219014883041382
1748517878935260000,13.298260009765626,-6.351503372192383,-7.113132476806641,-2.2873847484588623
1748517878954067500,13.3170673828125,-6.430178165435791,-7.015598773956299,-2.367398977279663
1748517878972875000,13.335875,-6.543929576873779,-6.9019856452941895,-2.389554500579834
1748517878991682600,13.3546826171875,-6.685269355773926,-6.771549224853516,-2.371427059173584
1748517879010490000,13.373489990234376,-6.820667266845703,-6.651337623596191,-2.3256375789642334
1748517879029297700,13.392297607421876,-6.957972526550293,-6.53452730178833,-2.2487680912017822
1748517879048105200,13.411105224609376,-7.091982841491699,-6.409175872802734,-2.1901206970214844
1748517879066912800,13.429912841796876,-7.207140922546387,-6.2852253913879395,-2.1733453273773193
1748517879085720300,13.44872021484375,-7.317191123962402,-6.161626815795898,-2.1595020294189453
1748517879104528000,13.46752783203125,-7.4373273849487305,-6.030364990234375,-2.1192569732666016
1748517879123335700,13.486335693359376,-7.5669169425964355,-5.882133483886719,-2.076695442199707
1748517879142143200,13.505143310546876,-7.691494941711426,-5.73641300201416,-2.0260462760925293
1748517879160950800,13.52395068359375,-7.808200359344482,-5.594655513763428,-1.9754060506820679
1748517879179758300,13.54275830078125,-7.913659572601318,-5.4620161056518555,-1.9263346195220947
1748517879198566000,13.56156591796875,-8.019169807434082,-5.32165002822876,-1.8823755979537964
1748517879217373400,13.58037353515625,-8.128305435180664,-5.169224739074707,-1.8385207653045654
1748517879236181000,13.599180908203126,-8.233863830566406,-5.008108615875244,-1.8145827054977417
1748517879254988500,13.617988525390626,-8.334918022155762,-4.847378730773926,-1.7895383834838867
1748517879273796000,13.636796142578126,-8.434471130371094,-4.680678844451904,-1.7667288780212402
1748517879292603600,13.655603759765626,-8.528935432434082,-4.512851238250732,-1.749806523323059
1748517879311411200,13.6744111328125,-8.624128341674805,-4.332233428955078,-1.7396994829177856
1748517879330218800,13.69321875,-8.712637901306152,-4.155257225036621,-1.7303673028945923
1748517879349026300,13.7120263671875,-8.799567222595215,-3.9686641693115234,-1.728496789932251
1748517879367833900,13.730833740234376,-8.88492202758789,-3.7877285480499268,-1.697542428970337
1748517879386641400,13.749641357421876,-8.970488548278809,-3.596766233444214,-1.662522792816162
1748517879405449000,13.768448974609376,-9.052257537841797,-3.3863680362701416,-1.6611828804016113
1748517879424256500,13.787256591796876,-9.130816459655762,-3.1822245121002197,-1.6346373558044434
1748517879443064000,13.80606396484375,-9.20683479309082,-2.9819016456604004,-1.5851953029632568
1748517879461871600,13.82487158203125,-9.280765533447266,-2.7837750911712646,-1.5127390623092651
1748517879480679200,13.84367919921875,-9.346753120422363,-2.601287841796875,-1.4289509057998657
1748517879499486500,13.862486572265626,-9.400715827941895,-2.429598569869995,-1.376219630241394
1748517879518294000,13.8812939453125,-9.44942569732666,-2.2572038173675537,-1.3355770111083984
1748517879537101600,13.9001015625,-9.495845794677734,-2.078909397125244,-1.2951596975326538
1748517879555909000,13.9189091796875,-9.541132926940918,-1.8915247917175293,-1.2487181425094604
1748517879574716700,13.937716552734376,-9.583822250366211,-1.716025948524475,-1.1730268001556396
1748517879593524200,13.956524169921876,-9.616645812988281,-1.5774190425872803,-1.0964797735214233
1748517879612331800,13.975331787109376,-9.640979766845703,-1.4666868448257446,-1.0347532033920288
1748517879631139300,13.994139404296876,-9.658373832702637,-1.379341721534729,-0.9917730093002319
1748517879649947000,14.01294677734375,-9.672656059265137,-1.2952977418899536,-0.965573787689209
1748517879668754400,14.03175439453125,-9.687548637390137,-1.2343401908874512,-0.8934129476547241
1748517879687562000,14.05056201171875,-9.701313972473145,-1.2008423805236816,-0.7828636169433594
1748517879706369500,14.06936962890625,-9.70571231842041,-1.212088704109192,-0.7073764204978943
1748517879725177000,14.088177001953126,-9.702706336975098,-1.2611570358276367,-0.6613324284553528
1748517879743984400,14.106984375,-9.695475578308105,-1.3217400312423706,-0.6489480137825012
1748517879762792000,14.1257919921875,-9.687823295593262,-1.3774776458740234,-0.6473135352134705
1748517879781599500,14.144599609375,-9.68130111694336,-1.4164354801177979,-0.660689115524292
1748517879800407000,14.163406982421876,-9.671247482299805,-1.4691927433013916,-0.6919800639152527
1748517879819214600,14.182214599609376,-9.65229320526123,-1.5752652883529663,-0.7226172089576721
1748517879838022100,14.201022216796876,-9.628045082092285,-1.6929398775100708,-0.7778793573379517
1748517879856829700,14.21982958984375,-9.600987434387207,-1.8048239946365356,-0.8567605018615723
1748517879875637000,14.238636962890626,-9.568873405456543,-1.9261764287948608,-0.9470456838607788
1748517879894444500,14.257444580078126,-9.525735855102539,-2.102869749069214,-1.0043339729309082
1748517879913252000,14.276252197265626,-9.473268508911133,-2.311001777648926,-1.042514681816101
1748517879932059600,14.2950595703125,-9.408544540405273,-2.540703296661377,-1.0929267406463623
1748517879950867200,14.3138671875,-9.331084251403809,-2.777111530303955,-1.1785229444503784
1748517879969674800,14.3326748046875,-9.243741035461426,-3.0179860591888428,-1.270986557006836
1748517879988482000,14.35148193359375,-9.14328384399414,-3.273127317428589,-1.362857699394226
1748517880007289600,14.37028955078125,-9.035341262817383,-3.532836675643921,-1.432499885559082
1748517880026097200,14.38909716796875,-8.912178993225098,-3.800358533859253,-1.5168085098266602
1748517880044904700,14.40790478515625,-8.762395858764648,-4.080784797668457,-1.654691457748413
1748517880063712300,14.426712158203125,-8.59800910949707,-4.365673542022705,-1.7847999334335327
1748517880082519600,14.44551953125,-8.418644905090332,-4.646481037139893,-1.9253606796264648
1748517880101327000,14.4643271484375,-8.253288269042969,-4.885122776031494,-2.046753406524658
1748517880129538300,14.492538330078125,-7.933085918426514,-5.27803373336792,-2.3192434310913086
1748517880148345900,14.511345947265625,-7.729485034942627,-5.519129276275635,-2.4422638416290283
1748517880167153400,14.5301533203125,-7.526599407196045,-5.736245155334473,-2.572192430496216
1748517880185961000,14.5489609375,-7.325386047363281,-5.919806957244873,-2.732212781906128
1748517880204768300,14.567768310546874,-7.110781669616699,-6.107982635498047,-2.8809213638305664
1748517880223575800,14.586575927734375,-6.911299705505371,-6.279186248779297,-2.996022939682007
1748517880242383400,14.60538330078125,-6.740878582000732,-6.430697917938232,-3.0622007846832275
1748517880261191000,14.62419091796875,-6.562037467956543,-6.585172176361084,-3.1217894554138184
1748517880279998200,14.642998291015624,-6.366527557373047,-6.737551689147949,-3.200486421585083
1748517880298805800,14.6618056640625,-6.19357967376709,-6.867251873016357,-3.2635579109191895
1748517880317613300,14.68061328125,-6.060690402984619,-6.969916820526123,-3.2952487468719482
1748517880336420900,14.6994208984375,-5.936759948730469,-7.068849563598633,-3.3100814819335938
1748517880355228200,14.718228271484374,-5.805261135101318,-7.17615270614624,-3.3124260902404785
1748517880374035700,14.73703564453125,-5.704155921936035,-7.248420715332031,-3.3306760787963867
1748517880392843300,14.75584326171875,-5.642938137054443,-7.287863254547119,-3.3488314151763916
1748517880411650800,14.77465087890625,-5.625387668609619,-7.301304340362549,-3.349083423614502
1748517880430458000,14.7934580078125,-5.6289777755737305,-7.304996490478516,-3.3349697589874268
1748517880449265700,14.812265625,-5.655567169189453,-7.284631729125977,-3.3345298767089844
1748517880468073200,14.8310732421875,-5.726562976837158,-7.230867862701416,-3.330375909805298
1748517880486880800,14.849880859375,-5.818345069885254,-7.170587062835693,-3.3015050888061523
1748517880505688000,14.86868798828125,-5.90121603012085,-7.12558650970459,-3.2514686584472656
1748517880524495600,14.88749560546875,-5.959836959838867,-7.091871738433838,-3.218088150024414
1748517880543303200,14.90630322265625,-6.006286144256592,-7.049831867218018,-3.224093198776245
1748517880562110500,14.9251103515625,-6.039585590362549,-7.009515762329102,-3.249690294265747
1748517880580918000,14.94391796875,-6.081705570220947,-6.974003791809082,-3.247539520263672
1748517880599725600,14.9627255859375,-6.151970863342285,-6.926475524902344,-3.2167656421661377
1748517880618532900,14.981532958984374,-6.251857757568359,-6.865264892578125,-3.1548068523406982
1748517880637340400,15.00034033203125,-6.361194610595703,-6.79737663269043,-3.082411289215088
1748517880656148000,15.01914794921875,-6.453724384307861,-6.738683223724365,-3.0182735919952393
1748517880674955300,15.037955322265624,-6.544673442840576,-6.667754173278809,-2.97971248626709
1748517880693762800,15.0567626953125,-6.691205024719238,-6.548608303070068,-2.917858362197876
1748517880712570400,15.0755703125,-6.893256664276123,-6.3808674812316895,-2.817431688308716
1748517880731377700,15.094377685546876,-7.0842156410217285,-6.212655067443848,-2.7179367542266846
1748517880750185200,15.113185302734376,-7.226754188537598,-6.09719181060791,-2.6016671657562256
1748517880768992800,15.13199267578125,-7.374997615814209,-5.974209308624268,-2.467517375946045
1748517880787800000,15.150800048828126,-7.542877197265625,-5.798439979553223,-2.377706527709961
1748517880806607600,15.169607666015626,-7.697216987609863,-5.610110759735107,-2.3345015048980713
1748517880825415000,15.188414794921876,-7.84374475479126,-5.431917190551758,-2.2672278881073
1748517880844222500,15.207222412109376,-7.980185508728027,-5.264406681060791,-2.1847314834594727
1748517880863029800,15.22602978515625,-8.092509269714355,-5.118729114532471,-2.1166651248931885
1748517880881837300,15.24483740234375,-8.196134567260742,-4.978837966918945,-2.0505943298339844
1748517880900644900,15.263644775390626,-8.289897918701172,-4.851444244384766,-1.977745532989502
1748517880919452200,15.2824521484375,-8.377079963684082,-4.717451095581055,-1.9340567588806152
1748517880938259700,15.301259765625,-8.456976890563965,-4.577830791473389,-1.9218242168426514
1748517880957067000,15.32006689453125,-8.537799835205078,-4.415953636169434,-1.9431211948394775
1748517880975874600,15.33887451171875,-8.615106582641602,-4.243215084075928,-1.986316442489624
1748517880994682000,15.35768212890625,-8.692009925842285,-4.051924228668213,-2.0496981143951416
1748517881013489400,15.376489501953126,-8.76445198059082,-3.8335494995117188,-2.1583964824676514
1748517881032297000,15.395296875,-8.834324836730957,-3.6308155059814453,-2.2231223583221436
1748517881051104300,15.414104248046876,-8.895931243896484,-3.420041084289551,-2.3100032806396484
1748517881069911800,15.432911865234376,-8.946166038513184,-3.1725590229034424,-2.464014768600464
1748517881088719400,15.45171923828125,-9.015485763549805,-2.876401424407959,-2.5724937915802
1748517881107526700,15.470526611328125,-9.099274635314941,-2.559051513671875,-2.6124372482299805
1748517881126334200,15.489334228515625,-9.18101978302002,-2.2988121509552,-2.5680222511291504
1748517881145141500,15.5081416015625,-9.255660057067871,-2.0972330570220947,-2.4707813262939453
1748517881163949000,15.526948974609375,-9.323749542236328,-1.89423406124115,-2.3769662380218506
1748517881182756400,15.54575634765625,-9.411910057067871,-1.6911512613296509,-2.174018144607544
1748517881201564000,15.56456396484375,-9.508609771728516,-1.4806888103485107,-1.8879287242889404
1748517881220371200,15.58337109375,-9.590441703796387,-1.254801869392395,-1.6184216737747192
1748517881239178800,15.6021787109375,-9.651681900024414,-1.0155413150787354,-1.4085830450057983
1748517881257986300,15.620986328125,-9.697283744812012,-0.8049843907356262,-1.2186344861984253
1748517881276793600,15.639793701171875,-9.729548454284668,-0.6347706913948059,-1.0503994226455688
1748517881295601200,15.65860107421875,-9.748882293701172,-0.5171653032302856,-0.9285516142845154
1748517881314408400,15.677408447265625,-9.759661674499512,-0.47098278999328613,-0.8352026343345642
1748517881333216000,15.696216064453125,-9.764399528503418,-0.4900749921798706,-0.7659735083580017
1748517881352023300,15.715023193359375,-9.764803886413574,-0.5707207322120667,-0.702337920665741
1748517881370830800,15.733830810546875,-9.75879192352295,-0.7069056034088135,-0.6608063578605652
1748517881389638100,15.75263818359375,-9.743837356567383,-0.8820288777351379,-0.6708519458770752
1748517881408445700,15.77144580078125,-9.719666481018066,-1.0794692039489746,-0.7302197813987732
1748517881427253000,15.7902529296875,-9.688301086425781,-1.2910118103027344,-0.800311803817749
1748517881446060500,15.809060546875,-9.650345802307129,-1.5276514291763306,-0.8411250710487366
1748517881464867800,15.827867919921875,-9.59913444519043,-1.7879207134246826,-0.9112342000007629
1748517881483675400,15.84667529296875,-9.541546821594238,-2.0352437496185303,-0.9935091137886047
1748517881502482700,15.865482666015625,-9.478140830993652,-2.294121503829956,-1.0354880094528198
1748517881521290200,15.884290283203125,-9.399713516235352,-2.588592290878296,-1.0559133291244507
1748517881540097500,15.90309765625,-9.30826187133789,-2.894911527633667,-1.0705829858779907
1748517881558905000,15.921905029296875,-9.203850746154785,-3.213346242904663,-1.0648618936538696
1748517881577712400,15.94071240234375,-9.076274871826172,-3.553903579711914,-1.0776870250701904
1748517881596520000,15.95952001953125,-8.914763450622559,-3.9267497062683105,-1.1304939985275269
1748517881615327200,15.9783271484375,-8.714247703552246,-4.332958698272705,-1.2073673009872437
1748517881634134800,15.997134765625,-8.493656158447266,-4.726736068725586,-1.298519253730774
1748517881652942000,16.015942138671875,-8.289353370666504,-5.05484676361084,-1.3804101943969727
1748517881671749600,16.03474951171875,-8.102723121643066,-5.3162994384765625,-1.5010827779769897
1748517881690557000,16.053556884765626,-7.920108795166016,-5.540523052215576,-1.6567624807357788
1748517881709364500,16.072364501953125,-7.726228713989258,-5.763421535491943,-1.8052029609680176
1748517881728171800,16.091171875,-7.5370635986328125,-5.971493244171143,-1.924659013748169
1748517881746979300,16.109979248046876,-7.3603644371032715,-6.140571117401123,-2.0709433555603027
1748517881765786600,16.12878662109375,-7.198234558105469,-6.266316890716553,-2.2558982372283936
1748517881784594200,16.14759423828125,-7.060756206512451,-6.375766277313232,-2.3802778720855713
1748517881803401500,16.1664013671875,-6.906704425811768,-6.521878719329834,-2.435758113861084
1748517881822209000,16.185208984375,-6.719239711761475,-6.684926509857178,-2.516735792160034
1748517881841016300,16.204016357421875,-6.530632495880127,-6.8311991691589355,-2.6183841228485107
1748517881859823900,16.222823974609376,-6.388807773590088,-6.922194004058838,-2.7270421981811523
1748517881878631200,16.241631103515626,-6.303071975708008,-6.959402084350586,-2.829908609390259
1748517881897438700,16.260438720703124,-6.1944050788879395,-7.023362159729004,-2.9106905460357666
1748517881916246000,16.27924609375,-6.0640869140625,-7.112883567810059,-2.9671742916107178
1748517881935053600,16.298053466796876,-5.9712018966674805,-7.179819583892822,-2.9942147731781006
1748517881953860900,16.31686083984375,-5.930988311767578,-7.224396705627441,-2.966794490814209
1748517881972668400,16.33566845703125,-5.959340572357178,-7.222528457641602,-2.914055109024048
1748517881991475700,16.354475830078126,-6.029696464538574,-7.193026542663574,-2.84139347076416
1748517882010283300,16.373283203125,-6.077481746673584,-7.174990177154541,-2.784621477127075
1748517882038494500,16.401494384765623,-6.143224716186523,-7.126404762268066,-2.765056848526001
1748517882057301800,16.4203017578125,-6.368022918701172,-6.974001407623291,-2.642340898513794
1748517882076109300,16.439109375,-6.651750087738037,-6.777317047119141,-2.4479763507843018
1748517882094916600,16.45791650390625,-6.869614601135254,-6.61417293548584,-2.2872438430786133
1748517882113724200,16.47672412109375,-7.021540641784668,-6.488181114196777,-2.184459924697876
1748517882132531500,16.495531494140625,-7.1263957023620605,-6.400187969207764,-2.1029655933380127
1748517882151339000,16.514339111328123,-7.241502285003662,-6.284954071044922,-2.0567922592163086
1748517882170146300,16.533146240234377,-7.3582539558410645,-6.144516468048096,-2.0667409896850586
1748517882188953900,16.551953857421875,-7.4650468826293945,-5.987002849578857,-2.144587993621826
1748517882207761200,16.57076123046875,-7.573043346405029,-5.8356404304504395,-2.1828198432922363
1748517882226568700,16.589568603515627,-7.678703784942627,-5.7057390213012695,-2.156949520111084
1748517882245376300,16.608376220703125,-7.756046772003174,-5.592413902282715,-2.1769347190856934
1748517882264183600,16.62718359375,-7.789368152618408,-5.49206018447876,-2.309412717819214
1748517882282991000,16.6459912109375,-7.798440456390381,-5.391160011291504,-2.5080089569091797
1748517882301798400,16.66479833984375,-7.842033386230469,-5.2774176597595215,-2.6118526458740234
1748517882320606000,16.68360595703125,-7.943163871765137,-5.156408309936523,-2.547152280807495
1748517882339413200,16.702413330078127,-8.050058364868164,-5.042803764343262,-2.436614513397217
1748517882358220800,16.721220703125,-8.131199836730957,-4.960867404937744,-2.3331916332244873
1748517882377028000,16.740028076171875,-8.214387893676758,-4.863622188568115,-2.244863748550415
1748517882395835600,16.758835693359377,-8.318665504455566,-4.700033664703369,-2.209045171737671
1748517882414643200,16.777643310546875,-8.413459777832031,-4.515529632568359,-2.2347400188446045
1748517882433450500,16.796450439453125,-8.500140190124512,-4.337455749511719,-2.259310722351074
1748517882452258000,16.815258056640626,-8.575576782226562,-4.1463117599487305,-2.331944227218628
1748517882471065300,16.8340654296875,-8.647331237792969,-3.9528255462646484,-2.4019174575805664
1748517882489873000,16.852872802734375,-8.7149019241333,-3.7861766815185547,-2.426054000854492
1748517882508680400,16.871680419921876,-8.782464027404785,-3.614470958709717,-2.444239616394043
1748517882527487700,16.89048779296875,-8.856849670410156,-3.4120266437530518,-2.4667139053344727
1748517882546295300,16.90929541015625,-8.932661056518555,-3.187930107116699,-2.4930028915405273
1748517882565102800,16.928102783203126,-9.021565437316895,-2.9734275341033936,-2.4373083114624023
1748517882583910100,16.94691015625,-9.104889869689941,-2.768411874771118,-2.3679676055908203
1748517882602717700,16.9657177734375,-9.200108528137207,-2.584155797958374,-2.202392101287842
1748517882621525200,16.984525146484376,-9.2968168258667,-2.4236667156219482,-1.9660693407058716
1748517882640332500,17.00333251953125,-9.389335632324219,-2.2637858390808105,-1.6988365650177002
1748517882659140000,17.02214013671875,-9.471416473388672,-2.0613787174224854,-1.4877445697784424
1748517882677947600,17.04094775390625,-9.537686347961426,-1.8173530101776123,-1.3784562349319458
1748517882696755000,17.0597548828125,-9.590886116027832,-1.5367268323898315,-1.3504647016525269
1748517882715562500,17.0785625,-9.635128021240234,-1.2540239095687866,-1.3274438381195068
1748517882734370000,17.0973701171875,-9.67174243927002,-1.0043613910675049,-1.2724158763885498
1748517882753177300,17.11617724609375,-9.70357894897461,-0.7940191030502319,-1.174940824508667
1748517882771985000,17.13498486328125,-9.72913932800293,-0.6304268836975098,-1.0567898750305176
1748517882790792400,17.15379248046875,-9.748075485229492,-0.5058736205101013,-0.9431316256523132
1748517882809599700,17.172599853515624,-9.757553100585938,-0.4011203944683075,-0.8942243456840515
1748517882828407300,17.1914072265625,-9.758414268493652,-0.32439491152763367,-0.9157002568244934
1748517882847214800,17.21021484375,-9.751707077026367,-0.27273520827293396,-1.000115990638733
1748517882866022400,17.2290224609375,-9.747527122497559,-0.27214881777763367,-1.0402146577835083
1748517882884829700,17.24782958984375,-9.747726440429688,-0.34577444195747375,-1.016191005706787
1748517882903637200,17.26663720703125,-9.739916801452637,-0.47300803661346436,-1.0395567417144775
1748517882922444800,17.28544482421875,-9.724502563476562,-0.6443862915039062,-1.0905057191848755
1748517882941252400,17.30425244140625,-9.709493637084961,-0.8727339506149292,-1.065107822418213
1748517882960059600,17.3230595703125,-9.687908172607422,-1.1060755252838135,-1.0447049140930176
1748517882978867200,17.3418671875,-9.654199600219727,-1.3222588300704956,-1.103837013244629
1748517882997674800,17.3606748046875,-9.608983039855957,-1.554188847541809,-1.1926203966140747
1748517883016482300,17.379482421875,-9.554645538330078,-1.806077241897583,-1.2717030048370361
1748517883035289900,17.398289794921876,-9.489654541015625,-2.0731866359710693,-1.3486006259918213
1748517883054097200,17.41709716796875,-9.402148246765137,-2.3583147525787354,-1.4860504865646362
1748517883072904700,17.43590478515625,-9.290279388427734,-2.616959810256958,-1.7356945276260376
1748517883091712300,17.454712158203126,-9.15925407409668,-2.8503570556640625,-2.0381171703338623
1748517883110519800,17.473519775390624,-9.01081657409668,-3.0968832969665527,-2.3205323219299316
1748517883129327000,17.4923271484375,-8.846136093139648,-3.379361152648926,-2.5487606525421143
1748517883148134700,17.511134765625,-8.65842056274414,-3.682758092880249,-2.7639498710632324
1748517883166942200,17.529942138671874,-8.483977317810059,-3.968553304672241,-2.9057013988494873
1748517883185749800,17.548749755859376,-8.32160472869873,-4.231537342071533,-3.002561330795288
1748517883204557300,17.567557373046874,-8.154435157775879,-4.4843268394470215,-3.0929577350616455
1748517883223364900,17.58636474609375,-7.959020614624023,-4.752499103546143,-3.1997056007385254
1748517883242172200,17.605172119140626,-7.738480567932129,-5.028750419616699,-3.316321611404419
1748517883260979700,17.623979736328124,-7.544320583343506,-5.272787570953369,-3.3839800357818604
1748517883279787300,17.642787353515626,-7.379673480987549,-5.475048065185547,-3.4255902767181396
1748517883298594800,17.6615947265625,-7.1907525062561035,-5.674212455749512,-3.5023975372314453
1748517883317402400,17.68040234375,-6.978410243988037,-5.88238000869751,-3.587446928024292
1748517883336210000,17.6992099609375,-6.77709436416626,-6.090103626251221,-3.626570701599121
1748517883355017500,17.718017578125,-6.593333721160889,-6.263606071472168,-3.6695475578308105
1748517883373825000,17.736824951171876,-6.430485248565674,-6.408653736114502,-3.707883596420288
1748517883392632600,17.755632568359374,-6.301850318908691,-6.51663064956665,-3.740401029586792
1748517883411440000,17.774440185546876,-6.177840709686279,-6.629169464111328,-3.749504327774048
1748517883430247400,17.793247314453126,-6.037224292755127,-6.773894786834717,-3.71976637840271
1748517883449055000,17.812054931640624,-5.930554389953613,-6.914478778839111,-3.6316521167755127
1748517883467862500,17.830862548828126,-5.8648271560668945,-7.016529083251953,-3.541541576385498
1748517883486670000,17.849670166015624,-5.821598052978516,-7.080706596374512,-3.4846789836883545
1748517883505477600,17.8684775390625,-5.799105167388916,-7.126650333404541,-3.428062915802002
1748517883524285200,17.88728515625,-5.788972854614258,-7.1738996505737305,-3.345646619796753
1748517883543092700,17.9060927734375,-5.781719207763672,-7.21451997756958,-3.269988536834717
1748517883561900300,17.924900390625,-5.753651142120361,-7.256130218505859,-3.2271456718444824
1748517883580707800,17.943707763671874,-5.7274065017700195,-7.289119720458984,-3.1993651390075684
1748517883599515400,17.962515380859376,-5.764922142028809,-7.282045841217041,-3.147676706314087
1748517883618323000,17.981322998046874,-5.846351623535156,-7.233841419219971,-3.1083927154541016
1748517883637130500,18.000130615234376,-5.957026481628418,-7.140600681304932,-3.113847255706787
1748517883655938000,18.01893798828125,-6.124536037445068,-6.988117694854736,-3.1347496509552
1748517883674745600,18.03774560546875,-6.328305721282959,-6.81276798248291,-3.1159486770629883
1748517883693553200,18.05655322265625,-6.502319812774658,-6.678929328918457,-3.0466601848602295
1748517883712360700,18.075360595703124,-6.625302314758301,-6.582525730133057,-2.991004467010498
1748517883731168300,18.094168212890626,-6.7351274490356445,-6.48515510559082,-2.9582431316375732
1748517883749975800,18.112975830078124,-6.846465110778809,-6.408161163330078,-2.8691070079803467
1748517883768783400,18.131783447265626,-6.964020729064941,-6.333715438842773,-2.7489728927612305
1748517883787591000,18.1505908203125,-7.069951057434082,-6.238154411315918,-2.6965904235839844
1748517883806398500,18.1693984375,-7.1421589851379395,-6.158321857452393,-2.689798593521118
1748517883825206000,18.1882060546875,-7.2125349044799805,-6.094967842102051,-2.645958423614502
1748517883844013600,18.207013671875,-7.293591022491455,-6.035566806793213,-2.5584874153137207
1748517883862821000,18.225821044921876,-7.371303081512451,-5.966708660125732,-2.4965314865112305
1748517883881629000,18.24462890625,-7.44173526763916,-5.895035743713379,-2.457542657852173
1748517883900436500,18.2634365234375,-7.520178318023682,-5.8202595710754395,-2.39622163772583
1748517883919244000,18.282244140625,-7.61785364151001,-5.72410774230957,-2.318035125732422
1748517883938051600,18.301051513671876,-7.711566925048828,-5.632241725921631,-2.231585741043091
1748517883956859100,18.319859130859374,-7.806983470916748,-5.532232761383057,-2.148439645767212
1748517883975666700,18.338666748046876,-7.913420677185059,-5.412423133850098,-2.0624842643737793
1748517883994474200,18.35747412109375,-8.028541564941406,-5.274358749389648,-1.9733339548110962
1748517884013281800,18.37628173828125,-8.154316902160645,-5.112468719482422,-1.8815302848815918
1748517884032089300,18.39508935546875,-8.284852981567383,-4.915465354919434,-1.835702896118164
1748517884050897200,18.413897216796876,-8.409273147583008,-4.697290897369385,-1.8411893844604492
1748517884069704700,18.43270458984375,-8.527237892150879,-4.48037576675415,-1.8392422199249268
1748517884088512300,18.45151220703125,-8.642804145812988,-4.273330211639404,-1.7919164896011353
1748517884107319800,18.47031982421875,-8.758418083190918,-4.042784690856934,-1.7653292417526245
1748517884126127400,18.48912744140625,-8.866219520568848,-3.796342134475708,-1.7743537425994873
1748517884144935000,18.507934814453126,-8.969374656677246,-3.5317723751068115,-1.8020261526107788
1748517884163742700,18.52674267578125,-9.082695960998535,-3.2503392696380615,-1.7636052370071411
1748517884182550300,18.54555029296875,-9.19345760345459,-2.9685275554656982,-1.6848082542419434
1748517884201357800,18.56435791015625,-9.286056518554688,-2.6996188163757324,-1.628368616104126
1748517884220165400,18.583165283203126,-9.361913681030273,-2.4881768226623535,-1.5277208089828491
1748517884238973000,18.601972900390624,-9.423295021057129,-2.3094842433929443,-1.4276509284973145
1748517884257780500,18.620780517578126,-9.478281021118164,-2.1236815452575684,-1.3500251770019531
1748517884276588300,18.63958837890625,-9.530406951904297,-1.9154562950134277,-1.2933483123779297
1748517884295395800,18.658395751953126,-9.578380584716797,-1.7227857112884521,-1.207075834274292
1748517884314203400,18.677203369140624,-9.628179550170898,-1.522021770477295,-1.0733131170272827
1748517884333011000,18.696010986328126,-9.665215492248535,-1.3310106992721558,-0.9911635518074036
1748517884351818500,18.714818603515624,-9.690899848937988,-1.191258430480957,-0.9152807593345642
1748517884370626300,18.733626220703126,-9.711430549621582,-1.1048917770385742,-0.7985849380493164
1748517884389433900,18.752433837890624,-9.721485137939453,-1.0728895664215088,-0.7155596613883972
1748517884408241400,18.771241455078126,-9.721041679382324,-1.0994923114776611,-0.6803403496742249
1748517884427049000,18.790049072265624,-9.714609146118164,-1.1772080659866333,-0.6410550475120544
1748517884445856500,18.8088564453125,-9.70300006866455,-1.2859243154525757,-0.6070937514305115
1748517884464664300,18.827664306640624,-9.68559741973877,-1.4124479293823242,-0.6038202047348022
1748517884483472000,18.846471923828126,-9.660711288452148,-1.565099835395813,-0.625713050365448
1748517884502279400,18.865279541015624,-9.626484870910645,-1.7555593252182007,-0.6474446058273315
1748517884521087000,18.8840869140625,-9.582691192626953,-1.9752163887023926,-0.6640345454216003
1748517884539894800,18.902894775390624,-9.523662567138672,-2.2376527786254883,-0.680562436580658
1748517884558702300,18.921702392578126,-9.443090438842773,-2.553988218307495,-0.6896191239356995
1748517884577510000,18.940510009765624,-9.334711074829102,-2.921468734741211,-0.7061170339584351
1748517884596317400,18.9593173828125,-9.197267532348633,-3.320603609085083,-0.7444852590560913
1748517884615125200,18.978125244140625,-9.03311824798584,-3.735724925994873,-0.7858216166496277
1748517884633932800,18.996932861328126,-8.84158706665039,-4.158945560455322,-0.836599588394165
1748517884652740400,19.015740234375,-8.631924629211426,-4.562831878662109,-0.9169660806655884
1748517884671548000,19.0345478515625,-8.415348052978516,-4.930889129638672,-1.019139051437378
1748517884690355700,19.053355712890625,-8.189187049865723,-5.281154632568359,-1.103177785873413
1748517884709163300,19.072163330078126,-7.95308256149292,-5.617882251739502,-1.1654466390609741
1748517884727970800,19.090970703125,-7.724090099334717,-5.915764808654785,-1.229860782623291
1748517884746778400,19.1097783203125,-7.493930339813232,-6.190710067749023,-1.2986531257629395
1748517884765586200,19.128586181640625,-7.2625412940979,-6.445040702819824,-1.3737977743148804
1748517884784393700,19.147393798828126,-7.033341884613037,-6.675564289093018,-1.4626433849334717
1748517884803201300,19.166201171875,-6.813093662261963,-6.878783226013184,-1.5602810382843018
1748517884822008800,19.1850087890625,-6.60125207901001,-7.060815811157227,-1.6549116373062134
1748517884840816600,19.203816650390625,-6.409214019775391,-7.218609809875488,-1.727433204650879
1748517884859624200,19.222624267578126,-6.22424840927124,-7.360175609588623,-1.804701805114746
1748517884878431700,19.241431640625,-6.047338485717773,-7.488600254058838,-1.8764159679412842
1748517884897239600,19.260239501953127,-5.879940032958984,-7.609437465667725,-1.9217538833618164
1748517884925451000,19.288450927734374,-5.684333324432373,-7.753992557525635,-1.9324414730072021
1748517884944258600,19.307258544921876,-5.5765862464904785,-7.83290433883667,-1.9281326532363892
1748517884963066000,19.326066162109374,-5.472989559173584,-7.9016523361206055,-1.9443963766098022
1748517884981873700,19.344873779296876,-5.397573471069336,-7.948556900024414,-1.9639346599578857
1748517885000681500,19.363681396484374,-5.354996681213379,-7.976191997528076,-1.9684408903121948
1748517885019489000,19.382489013671876,-5.349374294281006,-7.980467319488525,-1.9664005041122437
1748517885038296600,19.401296630859374,-5.400078296661377,-7.945876121520996,-1.967890977859497
1748517885057104400,19.4201044921875,-5.511728763580322,-7.8713884353637695,-1.9576733112335205
1748517885075912000,19.438911865234374,-5.671405792236328,-7.760486602783203,-1.9443219900131226
1748517885094719500,19.457719482421876,-5.835733413696289,-7.640994548797607,-1.9312717914581299
1748517885113527300,19.47652734375,-5.9676899909973145,-7.544780254364014,-1.9061331748962402
1748517885132334800,19.4953349609375,-6.068981170654297,-7.467529296875,-1.8904672861099243
1748517885151142400,19.514142333984374,-6.153178691864014,-7.396708965301514,-1.896702527999878
1748517885169950000,19.532949951171876,-6.242231369018555,-7.322001934051514,-1.895580530166626
1748517885188757800,19.5517578125,-6.364927291870117,-7.2171711921691895,-1.889585018157959
1748517885207565300,19.5705654296875,-6.48570442199707,-7.112805366516113,-1.8745756149291992
1748517885226372900,19.589372802734374,-6.5805888175964355,-7.035292625427246,-1.835998296737671
1748517885245180700,19.6081806640625,-6.676914691925049,-6.953479766845703,-1.7995339632034302
1748517885263988200,19.62698828125,-6.790166854858398,-6.844298839569092,-1.7943215370178223
1748517885282795800,19.645795654296876,-6.922269344329834,-6.717388153076172,-1.7689741849899292
1748517885301603600,19.664603515625,-7.0667195320129395,-6.587000370025635,-1.6862074136734009
1748517885320411100,19.6834111328125,-7.211709022521973,-6.4529948234558105,-1.5876096487045288
1748517885339218700,19.70221875,-7.344123363494873,-6.318709373474121,-1.5192596912384033
1748517885358026200,19.721026123046876,-7.457473278045654,-6.195555210113525,-1.4736272096633911
1748517885376834000,19.739833984375,-7.571497440338135,-6.067055702209473,-1.4260649681091309
1748517885395641600,19.7586416015625,-7.710561752319336,-5.899013996124268,-1.3853756189346313
1748517885414449200,19.77744921875,-7.853031635284424,-5.719221115112305,-1.3382031917572021
1748517885433257000,19.796257080078124,-7.9861907958984375,-5.553189277648926,-1.2462890148162842
1748517885452064500,19.815064453125,-8.124547004699707,-5.366929054260254,-1.1654119491577148
1748517885470872000,19.8338720703125,-8.268909454345703,-5.166308879852295,-1.051086187362671
1748517885489679600,19.8526796875,-8.413504600524902,-4.956230163574219,-0.9050445556640625
1748517885508487400,19.8714873046875,-8.578753471374512,-4.672106742858887,-0.8641701936721802
1748517885527295200,19.890295166015626,-8.745901107788086,-4.361937046051025,-0.8081496357917786
1748517885546102800,19.909102783203124,-8.902911186218262,-4.053524494171143,-0.6910110116004944
1748517885564910600,19.92791064453125,-9.05884838104248,-3.708894729614258,-0.5930975079536438
1748517885583718100,19.94671826171875,-9.201911926269531,-3.3490664958953857,-0.5281745791435242
1748517885602525700,19.965525634765626,-9.320940971374512,-3.0193612575531006,-0.41702330112457275
1748517885621333200,19.984333251953124,-9.419168472290039,-2.714595079421997,-0.2839297354221344
1748517885640141000,20.00314111328125,-9.5079927444458,-2.3933818340301514,-0.2004709541797638
1748517885658948600,20.021948486328125,-9.577496528625488,-2.1040751934051514,-0.1217498928308487
1748517885677756200,20.040756103515626,-9.624656677246094,-1.8803659677505493,-0.02463366836309433
1748517885696564000,20.05956396484375,-9.656279563903809,-1.7105679512023926,0.024856295436620712
1748517885715371500,20.07837158203125,-9.673413276672363,-1.6104015111923218,0.04560753330588341
1748517885734179000,20.097178955078125,-9.678762435913086,-1.5781625509262085,0.03678669035434723
1748517885752986600,20.115986572265626,-9.674687385559082,-1.603360652923584,0.008072922937572002
1748517885771794400,20.13479443359375,-9.662406921386719,-1.6755918264389038,-0.026034172624349594
1748517885790602000,20.15360205078125,-9.63839340209961,-1.80843186378479,-0.036432068794965744
1748517885809409500,20.172409423828125,-9.602388381958008,-1.9909381866455078,-0.026210075244307518
1748517885828217000,20.191217041015626,-9.553191184997559,-2.2147274017333984,-0.04380185157060623
1748517885847025000,20.21002490234375,-9.483410835266113,-2.4958465099334717,-0.07774041593074799
1748517885865832400,20.22883251953125,-9.387819290161133,-2.8344552516937256,-0.07143241167068481
1748517885884640000,20.247639892578125,-9.265089988708496,-3.213656425476074,-0.02998441644012928
1748517885903447600,20.266447509765626,-9.116649627685547,-3.6134257316589355,0.015001357533037663
1748517885922255400,20.28525537109375,-8.944962501525879,-4.019586563110352,0.03087230771780014
1748517885941063000,20.30406298828125,-8.754441261291504,-4.419140338897705,0.03663335740566254
1748517885959870500,20.322870361328125,-8.530760765075684,-4.83691930770874,0.026386303827166557
1748517885978678300,20.34167822265625,-8.281190872192383,-5.2528181076049805,-0.012606647796928883
1748517885997485800,20.36048583984375,-8.018848419189453,-5.6448187828063965,-0.06693797558546066
1748517886016293400,20.37929345703125,-7.7555832862854,-6.000412940979004,-0.12792102992534637
1748517886035101000,20.398100830078125,-7.486474990844727,-6.331162929534912,-0.19864092767238617
1748517886053908700,20.41690869140625,-7.22618293762207,-6.624794006347656,-0.2545289993286133
1748517886072716300,20.43571630859375,-6.983173370361328,-6.879369258880615,-0.28276747465133667
1748517886091523800,20.45452392578125,-6.7430243492126465,-7.112486839294434,-0.33845365047454834
1748517886110331400,20.473331298828125,-6.5174946784973145,-7.313714027404785,-0.44968387484550476
1748517886129139200,20.49213916015625,-6.307913303375244,-7.487346172332764,-0.5659140348434448
1748517886147946800,20.51094677734375,-6.117337703704834,-7.635112285614014,-0.6735120415687561
1748517886166754300,20.52975439453125,-5.935062408447266,-7.768223762512207,-0.7746800780296326
1748517886185561900,20.548561767578125,-5.771777153015137,-7.88112211227417,-0.8630671501159668
1748517886204369700,20.56736962890625,-5.654575824737549,-7.956837177276611,-0.940690815448761
1748517886223177200,20.58617724609375,-5.584710121154785,-7.997278690338135,-1.0123933553695679
1748517886241984800,20.60498486328125,-5.527085304260254,-8.027999877929688,-1.0830234289169312
1748517886260792300,20.623792236328125,-5.493195056915283,-8.039341926574707,-1.1679749488830566
1748517886279599900,20.642599853515627,-5.491180419921875,-8.030892372131348,-1.233730673789978
1748517886298407700,20.66140771484375,-5.50303840637207,-8.010329246520996,-1.3120914697647095
1748517886317215200,20.68021533203125,-5.5301337242126465,-7.977259159088135,-1.3969072103500366
1748517886336022800,20.699022705078125,-5.5942063331604,-7.919755935668945,-1.4672114849090576
1748517886354830300,20.717830322265623,-5.683607578277588,-7.843832969665527,-1.5301240682601929
1748517886373638000,20.736637939453125,-5.781065940856934,-7.763571262359619,-1.5737285614013672
1748517886392445700,20.75544580078125,-5.908820629119873,-7.6625518798828125,-1.5942134857177734
1748517886411253200,20.774253173828125,-6.078028678894043,-7.522434711456299,-1.6250931024551392
1748517886430060800,20.793060791015623,-6.273952007293701,-7.3526787757873535,-1.6571176052093506
1748517886448868400,20.811868408203125,-6.4659624099731445,-7.189995288848877,-1.6326926946640015
1748517886467676000,20.830676025390623,-6.640308856964111,-7.038800239562988,-1.5912222862243652
1748517886486483700,20.849483642578125,-6.782702922821045,-6.898474216461182,-1.6051084995269775
1748517886505291300,20.868291259765623,-6.891980171203613,-6.780228614807129,-1.643015742301941
1748517886524098800,20.887098876953125,-7.021243572235107,-6.639767169952393,-1.6691362857818604
1748517886542906400,20.90590625,-7.190186977386475,-6.459514617919922,-1.6571900844573975
1748517886561714000,20.9247138671875,-7.378253936767578,-6.258901119232178,-1.5993478298187256
1748517886580521500,20.943521484375,-7.562427043914795,-6.051540374755859,-1.535885214805603
1748517886599329300,20.962329345703125,-7.739550590515137,-5.834488391876221,-1.4928114414215088
1748517886618136800,20.98113671875,-7.902584552764893,-5.623894691467285,-1.4461572170257568
1748517886636944400,20.9999443359375,-8.06027603149414,-5.418816566467285,-1.356015682220459
1748517886655752000,21.018751953125,-8.242206573486328,-5.153355121612549,-1.2958966493606567
1748517886674559500,21.0375595703125,-8.430737495422363,-4.853823184967041,-1.2383297681808472
1748517886693367000,21.056366943359375,-8.598923683166504,-4.5748796463012695,-1.1398977041244507
1748517886712174600,21.075174560546873,-8.76441764831543,-4.264886379241943,-1.0798773765563965
1748517886730982400,21.093982421875,-8.93246841430664,-3.912390947341919,-1.0366252660751343
1748517886749790000,21.1127900390625,-9.094772338867188,-3.5384182929992676,-0.9670117497444153
1748517886768597500,21.131597412109375,-9.252729415893555,-3.1243436336517334,-0.8921076059341431
1748517886787405000,21.150405029296873,-9.384392738342285,-2.7236886024475098,-0.8276902437210083
1748517886806212600,21.169212646484375,-9.489184379577637,-2.356215238571167,-0.7576316595077515
1748517886825020200,21.188020263671874,-9.576438903808594,-1.989803671836853,-0.7091436982154846
1748517886843827700,21.20682763671875,-9.64917278289795,-1.6190541982650757,-0.6652097702026367
1748517886862635500,21.225635498046874,-9.705405235290527,-1.276710033416748,-0.5878086090087891
1748517886881443000,21.244443115234375,-9.74703311920166,-0.9657092094421387,-0.48285430669784546
1748517886900250600,21.263250732421874,-9.771050453186035,-0.7379134297370911,-0.39045020937919617
1748517886919058200,21.28205810546875,-9.781278610229492,-0.6178736090660095,-0.33944377303123474
1748517886937865700,21.30086572265625,-9.785616874694824,-0.5613242387771606,-0.31147241592407227
1748517886956673300,21.31967333984375,-9.784892082214355,-0.5753380060195923,-0.30861949920654297
1748517886975480800,21.338480712890625,-9.778904914855957,-0.6668983101844788,-0.3141007125377655
1748517886994288400,21.357288330078124,-9.763798713684082,-0.8519420623779297,-0.33589407801628113
1748517887013096000,21.376095947265625,-9.737223625183105,-1.1106319427490234,-0.35122165083885193
1748517887031903500,21.394903564453124,-9.699455261230469,-1.4038671255111694,-0.34657707810401917
1748517887050711300,21.413711181640625,-9.654603004455566,-1.6830500364303589,-0.3554852604866028
1748517887069518800,21.432518798828124,-9.602472305297852,-1.9434514045715332,-0.43115612864494324
1748517887088326400,21.451326416015625,-9.52872085571289,-2.2550644874572754,-0.5371637940406799
1748517887107134000,21.470134033203124,-9.419829368591309,-2.6558306217193604,-0.6194725632667542
1748517887125941500,21.48894140625,-9.273391723632812,-3.115313768386841,-0.6851535439491272
1748517887144749000,21.5077490234375,-9.09270191192627,-3.598177433013916,-0.7391154170036316
1748517887163556600,21.526556640625,-8.887543678283691,-4.064757823944092,-0.8122074604034424
1748517887182364200,21.5453642578125,-8.656588554382324,-4.5159406661987305,-0.9165990352630615
1748517887201171700,21.564171630859374,-8.39937686920166,-4.954006195068359,-1.0385966300964355
1748517887219979300,21.582979248046875,-8.12205982208252,-5.37764310836792,-1.1329066753387451
1748517887238786800,21.601786865234374,-7.859740257263184,-5.741934299468994,-1.193763017654419
1748517887257594400,21.620594482421875,-7.593247413635254,-6.079960346221924,-1.2438108921051025
1748517887276402000,21.63940185546875,-7.338859558105469,-6.370795249938965,-1.3132026195526123
1748517887295209700,21.658209716796875,-7.164402961730957,-6.558411121368408,-1.3523932695388794
1748517887314017300,21.677017333984374,-6.970424175262451,-6.753864288330078,-1.4031684398651123
1748517887332824800,21.695824951171875,-6.654751777648926,-7.0331315994262695,-1.5555481910705566
1748517887351632400,21.71463232421875,-6.353358745574951,-7.269922256469727,-1.7185628414154053
1748517887370440000,21.73343994140625,-6.194665908813477,-7.39906120300293,-1.7465368509292603
1748517887389247500,21.75224755859375,-5.991132736206055,-7.557483673095703,-1.7779655456542969
1748517887408055000,21.771054931640624,-5.817143440246582,-7.664582252502441,-1.893515944480896
1748517887426862600,21.789862548828125,-5.693049430847168,-7.76540994644165,-1.8595634698867798
1748517887445670100,21.808670166015624,-5.547663688659668,-7.874664306640625,-1.839425802230835
1748517887464477700,21.827477783203125,-5.454355716705322,-7.926650047302246,-1.8943597078323364
1748517887483285200,21.84628515625,-5.418629169464111,-7.934554100036621,-1.9625730514526367
1748517887502092800,21.8650927734375,-5.436888217926025,-7.900459289550781,-2.0477702617645264
1748517887520900400,21.883900390625,-5.5141401290893555,-7.823772430419922,-2.13382887840271
1748517887539708000,21.9027080078125,-5.608985424041748,-7.740016460418701,-2.1913042068481445
1748517887558515500,21.921515380859375,-5.708693027496338,-7.664297103881836,-2.1999475955963135
1748517887577323000,21.940322998046874,-5.840658664703369,-7.571223735809326,-2.17569899559021
1748517887596130600,21.959130615234375,-6.021115779876709,-7.443037033081055,-2.125499963760376
1748517887614938000,21.977938232421874,-6.253941059112549,-7.257096767425537,-2.0959837436676025
1748517887633745700,21.99674560546875,-6.508545398712158,-7.021322250366211,-2.1237361431121826
1748517887652553200,22.01555322265625,-6.746342658996582,-6.798776626586914,-2.105679512023926
1748517887671360800,22.03436083984375,-6.948821544647217,-6.610409259796143,-2.0461585521698
1748517887690168300,22.053168212890625,-7.118209362030029,-6.4334397315979,-2.0278892517089844
1748517887708975900,22.071975830078124,-7.251897811889648,-6.265100479125977,-2.0805938243865967
1748517887727783400,22.090783447265625,-7.3758158683776855,-6.090576171875,-2.161623477935791
1748517887746590700,22.1095908203125,-7.520227432250977,-5.901028633117676,-2.1896185874938965
1748517887765398300,22.128398193359374,-7.6848626136779785,-5.712925910949707,-2.1155998706817627
1748517887793609700,22.156609619140625,-7.983180522918701,-5.3712639808654785,-1.8943945169448853
1748517887812417300,22.175417236328126,-8.173454284667969,-5.119617462158203,-1.77610445022583
1748517887831224800,22.194224853515625,-8.358762741088867,-4.846612453460693,-1.6768494844436646
1748517887850032400,22.213032470703126,-8.569170951843262,-4.4921488761901855,-1.6000884771347046
1748517887868840000,22.23183984375,-8.776656150817871,-4.085377216339111,-1.565373420715332
1748517887887647500,22.2506474609375,-8.953365325927734,-3.7129147052764893,-1.4906009435653687
1748517887906454800,22.269454833984376,-9.117166519165039,-3.3337390422821045,-1.3906207084655762
1748517887925262300,22.288262451171875,-9.272435188293457,-2.918135643005371,-1.2949191331863403
1748517887944070000,22.30706982421875,-9.402321815490723,-2.471628427505493,-1.287545919418335
1748517887962877400,22.32587744140625,-9.5028657913208,-2.0381920337677,-1.308315396308899
1748517887981685000,22.34468505859375,-9.578758239746094,-1.6782557964324951,-1.2653934955596924
1748517888000492500,22.363492431640626,-9.629199028015137,-1.4085689783096313,-1.210309624671936
1748517888019300000,22.382300048828125,-9.662248611450195,-1.1862672567367554,-1.1849486827850342
1748517888038107600,22.401107666015626,-9.685612678527832,-0.9632964134216309,-1.1963893175125122
1748517888056915200,22.419915283203125,-9.705223083496094,-0.7835478186607361,-1.1683639287948608
1748517888075722500,22.438722412109374,-9.721713066101074,-0.6426565647125244,-1.1160953044891357
1748517888094530000,22.457530029296876,-9.728067398071289,-0.5716386437416077,-1.099239706993103
1748517888113337600,22.476337646484374,-9.72864055633545,-0.5993565917015076,-1.079217791557312
1748517888132145200,22.495145263671876,-9.730761528015137,-0.6779803037643433,-1.0114350318908691
1748517888150952700,22.51395263671875,-9.730549812316895,-0.7842669486999512,-0.9336629509925842
1748517888169760300,22.53276025390625,-9.724428176879883,-0.9353845119476318,-0.8549458980560303
1748517888188567800,22.55156787109375,-9.707852363586426,-1.133178472518921,-0.8024378418922424
1748517888207375400,22.570375244140624,-9.675642967224121,-1.404841661453247,-0.7607565522193909
1748517888226183000,22.589182861328126,-9.624149322509766,-1.7411304712295532,-0.7173477411270142
1748517888244990200,22.607990234375,-9.548646926879883,-2.1366970539093018,-0.6544137597084045
1748517888263797800,22.6267978515625,-9.438165664672852,-2.5965890884399414,-0.5908847451210022
1748517888282605300,22.645605224609376,-9.287068367004395,-3.0967063903808594,-0.5754584074020386
1748517888301412900,22.664412841796874,-9.10499382019043,-3.592773675918579,-0.6012017726898193
1748517888320220400,22.683220458984376,-8.900407791137695,-4.066924095153809,-0.6428568363189697
1748517888339028000,22.702028076171874,-8.67030143737793,-4.528278350830078,-0.7006785869598389
1748517888357835500,22.72083544921875,-8.402046203613281,-5.000235557556152,-0.7574070692062378
1748517888376642800,22.739642822265626,-8.119266510009766,-5.438579559326172,-0.818382740020752
1748517888395450400,22.758450439453124,-7.840418338775635,-5.829825401306152,-0.8434292078018188
1748517888414258000,22.7772578125,-7.527802467346191,-6.220621109008789,-0.8980181217193604
1748517888433065500,22.7960654296875,-7.220001697540283,-6.564889907836914,-0.9716932773590088
1748517888451873000,22.814873046875,-6.918960094451904,-6.875452995300293,-1.0131866931915283
1748517888470680600,22.8336806640625,-6.638428211212158,-7.1410746574401855,-1.0520020723342896
1748517888489488000,22.85248779296875,-6.393487453460693,-7.3527398109436035,-1.109472393989563
1748517888508295400,22.87129541015625,-6.166488170623779,-7.53501033782959,-1.1697971820831299
1748517888527103000,22.89010302734375,-5.948934078216553,-7.700085639953613,-1.2203530073165894
1748517888545910500,22.90891064453125,-5.812726020812988,-7.792408466339111,-1.2887934446334839
1748517888564718000,22.927718017578126,-5.753067970275879,-7.825930118560791,-1.3518189191818237
1748517888583525600,22.946525634765624,-5.715411186218262,-7.842329025268555,-1.4150424003601074
1748517888602333000,22.9653330078125,-5.70109748840332,-7.840883731842041,-1.4793273210525513
1748517888621140500,22.984140380859376,-5.743095874786377,-7.80655574798584,-1.4983093738555908
1748517888639948000,23.002947998046874,-5.8274102210998535,-7.738315105438232,-1.5264886617660522
1748517888658755600,23.021755615234376,-5.915586948394775,-7.659214973449707,-1.5851316452026367
1748517888677563100,23.040563232421874,-6.007769584655762,-7.580165863037109,-1.6180769205093384
1748517888696370400,23.059370361328124,-6.106357574462891,-7.499175071716309,-1.6263940334320068
1748517888715178000,23.078177978515626,-6.2164225578308105,-7.4017653465271,-1.6554008722305298
1748517888733985500,23.096985595703124,-6.363389492034912,-7.272055149078369,-1.6717915534973145
1748517888752793000,23.11579296875,-6.52873420715332,-7.126749515533447,-1.659955620765686
1748517888771600600,23.1346005859375,-6.671969890594482,-6.986690521240234,-1.6856352090835571
1748517888790408000,23.153407958984374,-6.804751873016357,-6.846100807189941,-1.7310837507247925
1748517888809215500,23.172215576171876,-6.964099884033203,-6.68832540512085,-1.7140603065490723
1748517888828023000,23.19102294921875,-7.171258926391602,-6.4855637550354,-1.6373448371887207
1748517888846830600,23.20983056640625,-7.388298511505127,-6.245153427124023,-1.6066988706588745
1748517888865638000,23.228637939453126,-7.582545757293701,-6.0017476081848145,-1.6292396783828735
1748517888884445400,23.247445556640624,-7.773970603942871,-5.766878604888916,-1.5744414329528809
1748517888903253000,23.2662529296875,-7.978075981140137,-5.509220600128174,-1.4728150367736816
1748517888922060500,23.285060546875,-8.17708683013916,-5.214808940887451,-1.4530714750289917
1748517888940868000,23.3038681640625,-8.372482299804688,-4.893659591674805,-1.4574055671691895
1748517888959675400,23.32267529296875,-8.566765785217285,-4.5517897605896,-1.4360086917877197
1748517888978483000,23.34148291015625,-8.762713432312012,-4.17221736907959,-1.4063568115234375
1748517888997290500,23.36029052734375,-8.95070743560791,-3.752680778503418,-1.404494047164917
1748517889016098000,23.37909814453125,-9.121543884277344,-3.3160135746002197,-1.404234766960144
1748517889034905300,23.3979052734375,-9.277656555175781,-2.860720157623291,-1.3826665878295898
1748517889053713000,23.416712890625,-9.414365768432617,-2.391174793243408,-1.3499587774276733
1748517889072520400,23.4355205078125,-9.527093887329102,-1.9161338806152344,-1.316545009613037
1748517889091327700,23.45432763671875,-9.614293098449707,-1.45762300491333,-1.2692867517471313
1748517889110135300,23.47313525390625,-9.677069664001465,-1.0303823947906494,-1.2095534801483154
1748517889128942800,23.49194287109375,-9.720032691955566,-0.6249924898147583,-1.140496015548706
1748517889147750400,23.51075048828125,-9.750553131103516,-0.3182525634765625,-0.997901976108551
1748517889166557700,23.5295576171875,-9.769895553588867,-0.13452979922294617,-0.837510883808136
1748517889185365200,23.548365234375,-9.77795696258545,-0.06528934836387634,-0.746787965297699
1748517889204172800,23.5671728515625,-9.782322883605957,-0.11957921832799911,-0.6798929572105408
1748517889222980400,23.58598046875,-9.78281307220459,-0.25635039806365967,-0.6334307193756104
1748517889241787600,23.60478759765625,-9.7767915725708,-0.4813838601112366,-0.5941301584243774
1748517889260595200,23.62359521484375,-9.758621215820312,-0.7944741249084473,-0.5554444789886475
1748517889279402500,23.642402587890626,-9.721272468566895,-1.1792477369308472,-0.5259661078453064
1748517889298210000,23.6612099609375,-9.661609649658203,-1.5969880819320679,-0.5227819085121155
1748517889317017600,23.680017578125,-9.577619552612305,-2.037531852722168,-0.5367087721824646
1748517889335825200,23.6988251953125,-9.473130226135254,-2.4755518436431885,-0.549399197101593
1748517889354632400,23.717632568359374,-9.339035034179688,-2.938060998916626,-0.5662051439285278
1748517889373440000,23.73643994140625,-9.175702095031738,-3.4114840030670166,-0.5819372534751892
1748517889392247600,23.75524755859375,-8.984591484069824,-3.8812849521636963,-0.6189679503440857
1748517889411054800,23.774054931640624,-8.747916221618652,-4.381143093109131,-0.6707767248153687
1748517889429862400,23.7928623046875,-8.488018989562988,-4.855597496032715,-0.7396561503410339
1748517889448670000,23.811669921875,-8.241299629211426,-5.250381946563721,-0.8275615572929382
1748517889467477200,23.830477294921874,-7.989427089691162,-5.614728927612305,-0.9023609757423401
1748517889486284800,23.849284912109376,-7.732981204986572,-5.952218055725098,-0.9708198308944702
1748517889505092400,23.86809228515625,-7.465063571929932,-6.272689342498779,-1.0471802949905396
1748517889523899600,23.886899658203124,-7.192626476287842,-6.571453094482422,-1.1191667318344116
1748517889542707200,23.905707275390625,-6.929588794708252,-6.835963726043701,-1.1919658184051514
1748517889561514800,23.9245146484375,-6.674576759338379,-7.073949337005615,-1.2568414211273193
1748517889580322000,23.943322021484374,-6.439744472503662,-7.277288436889648,-1.3195253610610962
1748517889599129600,23.962129638671875,-6.242395877838135,-7.43323278427124,-1.39639151096344
1748517889617937000,23.98093701171875,-6.069664001464844,-7.557025909423828,-1.4902803897857666
1748517889636744400,23.999744384765624,-5.921982288360596,-7.6619954109191895,-1.5473655462265015
1748517889655552000,24.018552001953125,-5.803586959838867,-7.746222019195557,-1.5763270854949951
1748517889674359300,24.037359375,-5.726933002471924,-7.789916038513184,-1.6400692462921143
1748517889693166800,24.056166748046873,-5.702493667602539,-7.787150859832764,-1.7355761528015137
1748517889711974400,24.074974365234375,-5.762322902679443,-7.729893207550049,-1.792979121208191
1748517889730781700,24.09378173828125,-5.881686687469482,-7.637695789337158,-1.8004859685897827
1748517889749589200,24.11258935546875,-6.022800445556641,-7.530404567718506,-1.7858498096466064
1748517889768396500,24.131396484375,-6.156131744384766,-7.427909851074219,-1.7602810859680176
1748517889787204000,24.1502041015625,-6.273197174072266,-7.333177089691162,-1.74410080909729
1748517889806011600,24.16901171875,-6.379678726196289,-7.239562511444092,-1.748949408531189
1748517889824819000,24.18781884765625,-6.4897003173828125,-7.134418964385986,-1.7760190963745117
1748517889843626500,24.20662646484375,-6.629717826843262,-7.0024518966674805,-1.7840685844421387
1748517889862433800,24.225433837890623,-6.816858291625977,-6.835589408874512,-1.7249743938446045
1748517889881241300,24.244241455078125,-7.035552501678467,-6.633471965789795,-1.6335325241088867
1748517889900049000,24.263048828125,-7.258443355560303,-6.410873889923096,-1.5446943044662476
1748517889918856200,24.281856201171873,-7.478830337524414,-6.180193901062012,-1.4292256832122803
