time,seconds_elapsed,z,y,x
1748517865854248700,0.217248779296875,0.010231691412627697,0.05238015204668045,0.06368082761764526
1748517865873056800,0.236056884765625,-0.001985253533348441,0.04504998400807381,0.04169032722711563
1748517865891864800,0.25486474609375,0.0261137206107378,0.019394399598240852,0.03924693539738655
1748517865910673000,0.2736728515625,0.050547610968351364,-0.0587940476834774,0.02214321307837963
1748517865929481000,0.29248095703125,0.02489202655851841,-0.07101099193096161,0.0038177953101694584
1748517865948289300,0.311289306640625,-0.021532366052269936,0.007177455350756645,-0.0022906772792339325
1748517865967097300,0.330097412109375,-0.021532366052269936,0.03649812191724777,-0.007177455350756645
1748517865985905400,0.348905517578125,0.017561858519911766,0.060932014137506485,0.008704573847353458
1748517866004713700,0.367713623046875,0.037108972668647766,0.05115845799446106,0.00992626789957285
1748517866023521800,0.386521728515625,0.033443886786699295,0.0328330397605896,0.023364907130599022
1748517866042329900,0.405329833984375,0.01511846948415041,0.042606595903635025,0.046577103435993195
1748517866061138000,0.424137939453125,-0.005650337319821119,0.03161134570837021,0.05635065957903862
1748517866079946200,0.4429462890625,-0.020310672000050545,0.0328330397605896,0.028251685202121735
1748517866098754300,0.46175439453125,-0.0032069480512291193,0.07559234648942947,-0.007177455350756645
1748517866117562400,0.480562255859375,0.0065666078589856625,0.07070557028055191,-0.0035123717971146107
1748517866136370400,0.499370361328125,0.0004581354442052543,-0.0050394898280501366,0.016034740954637527
1748517866155178800,0.5181787109375,-0.020310672000050545,-0.09300149232149124,0.00259610079228878
1748517866173986800,0.53698681640625,-0.03008422814309597,0.007177455350756645,-0.004734066314995289
1748517866192795000,0.555794921875,-0.004428642801940441,0.08780929446220398,-0.026724567636847496
1748517866211603000,0.57460302734375,0.029778804630041122,0.04504998400807381,-0.062153708189725876
1748517866230411300,0.593411376953125,0.034665580838918686,-0.0038177953101694584,-0.059710320085287094
1748517866249219300,0.61221923828125,0.0004581354442052543,-0.00259610079228878,-0.01817270554602146
1748517866268027400,0.63102734375,-0.036192700266838074,0.01572931744158268,0.028251685202121735
1748517866286835700,0.649835693359375,-0.009315420873463154,0.03771981969475746,0.0587940476834774
1748517866305643800,0.668643798828125,0.04321744292974472,0.030389651656150818,0.0587940476834774
1748517866324451800,0.687451904296875,0.04810422286391258,0.025502873584628105,0.046577103435993195
1748517866343260200,0.70626025390625,0.02367033064365387,0.026724567636847496,0.0331384651362896
1748517866362068200,0.725068115234375,0.017561858519911766,0.010842538438737392,-0.004734066314995289
1748517866380876300,0.743876220703125,0.01511846948415041,0.01572931744158268,-0.05726693198084831
1748517866399684600,0.7626845703125,0.02489202655851841,0.0328330397605896,-0.08047912269830704
1748517866418492700,0.78149267578125,0.0261137206107378,0.04749337583780289,-0.03771981969475746
1748517866437300700,0.80030078125,0.004123218823224306,0.020616095513105392,0.04046862944960594
1748517866456109000,0.819109130859375,-0.025197450071573257,0.0462716780602932,0.0978882759809494
1748517866474917000,0.837917236328125,-0.02886253222823143,0.0584886260330677,0.09300149232149124
1748517866493725200,0.85672509765625,-0.021532366052269936,0.06337540596723557,0.0587940476834774
1748517866512533500,0.875533447265625,-0.005650337319821119,0.0584886260330677,0.027029991149902344
1748517866531341600,0.894341552734375,0.007788302376866341,0.020616095513105392,-0.0022906772792339325
1748517866550150000,0.91314990234375,0.011453386396169662,-0.0050394898280501366,-0.03649812191724777
1748517866568958000,0.9319580078125,0.004123218823224306,0.019394399598240852,-0.04016320779919624
1748517866587766000,0.95076611328125,-0.005650337319821119,0.01817270554602146,-0.013285927474498749
1748517866606574300,0.96957421875,-0.0007635590736754239,0.012064233422279358,0.00992626789957285
1748517866625382400,0.98838232421875,0.0065666078589856625,0.021837789565324783,0.02214321307837963
1748517866644190700,1.007190673828125,0.02733541466295719,-0.00259610079228878,0.014813045971095562
1748517866662998800,1.025998779296875,0.032222192734479904,-0.008704573847353458,-0.014507622458040714
1748517866681807000,1.04480712890625,0.029778804630041122,0.010842538438737392,-0.03527642786502838
1748517866700615200,1.063615234375,0.010231691412627697,-0.01725643500685692,-0.01817270554602146
1748517866719423500,1.082423583984375,-0.005650337319821119,-0.051463883370161057,0.014813045971095562
1748517866738231600,1.1012314453125,0.005344913341104984,-0.006261184345930815,0.031916771084070206
1748517866757039600,1.12003955078125,0.02489202655851841,0.04504998400807381,0.030695075169205666
1748517866775848000,1.138847900390625,0.02367033064365387,0.0035123717971146107,0.0038177953101694584
1748517866794656000,1.157656005859375,0.009009997360408306,-0.016034740954637527,-0.023059483617544174
1748517866813464300,1.17646435546875,0.010231691412627697,-0.0038177953101694584,-0.014507622458040714
1748517866832272400,1.1952724609375,0.01511846948415041,-0.008704573847353458,0.02092151902616024
1748517866851080700,1.214080810546875,0.0016798300202935934,0.009620844386518002,0.04046862944960594
1748517866869888800,1.232888671875,-0.005650337319821119,0.05726693198084831,0.027029991149902344
1748517866888697000,1.251697021484375,0.012675080448389053,0.0719272643327713,0.0038177953101694584
1748517866907505200,1.270505126953125,0.028557108715176582,0.020616095513105392,-0.004734066314995289
1748517866926313500,1.2893134765625,0.020005248486995697,-0.012369656935334206,0.028251685202121735
1748517866945121500,1.30812158203125,0.0065666078589856625,-0.04291202127933502,0.051463883370161057
1748517866963929900,1.326929931640625,0.020005248486995697,-0.04046862944960594,0.047798797488212585
1748517866982738200,1.34573828125,0.009009997360408306,0.0584886260330677,0.05757235363125801
1748517867001546200,1.364546142578125,-0.009315420873463154,0.11468657106161118,0.0587940476834774
1748517867020354600,1.3833544921875,0.004123218823224306,0.04993676394224167,0.03802524134516716
1748517867039162600,1.40216259765625,0.02244863659143448,-0.049020491540431976,0.028251685202121735
1748517867057971000,1.420970947265625,0.031000498682260513,-0.06001574173569679,-0.008399149402976036
1748517867076779000,1.439779052734375,0.037108972668647766,0.030389651656150818,-0.14889401197433472
1748517867095587300,1.45858740234375,0.04443913698196411,0.0988045409321785,-0.3358132839202881
1748517867114395400,1.4773955078125,0.12751436233520508,0.2576248347759247,-0.47386476397514343
1748517867133203700,1.49620361328125,0.6015318632125854,0.5410579442977905,-0.9405520558357239
1748517867152012000,1.515011962890625,1.4959648847579956,0.7707365155220032,-1.8446060419082642
1748517867170820000,1.533820068359375,2.219208002090454,0.4628695249557495,-2.5276858806610107
1748517867189628400,1.55262841796875,2.615037202835083,0.5935907959938049,-2.7585861682891846
1748517867208436500,1.5714365234375,2.860597610473633,1.154348611831665,-2.3945212364196777
1748517867227244800,1.590244873046875,2.8850317001342773,1.1677871942520142,-1.501309871673584
1748517867246053000,1.60905322265625,2.6565747261047363,0.9258917570114136,-0.30282753705978394
1748517867264861200,1.627861083984375,1.923557996749878,0.34192174673080444,0.8052493929862976
1748517867283669500,1.64666943359375,0.06398624926805496,-1.5394878387451172,0.9494093656539917
1748517867302477800,1.665477783203125,-1.0782980918884277,-2.024500608444214,1.0874608755111694
1748517867321286000,1.684285888671875,-1.0550858974456787,-1.4930634498596191,0.7966975569725037
1748517867340094200,1.70309423828125,-0.24510246515274048,-1.7655012607574463,0.09666658192873001
1748517867358902500,1.721902587890625,0.5514423847198486,-1.3379082679748535,-0.6815528273582458
1748517867377710600,1.740710693359375,0.7531746625900269,-0.6525375843048096,-1.0590564012527466
1748517867396519000,1.759518798828125,0.966971218585968,-0.3190149664878845,-0.7010999321937561
1748517867415327200,1.7783271484375,1.3298144340515137,-0.4778352677822113,-0.21853061020374298
1748517867434135300,1.79713525390625,1.5203988552093506,-0.6329904794692993,-0.14156384766101837
1748517867452943600,1.815943603515625,1.166107416152954,-0.9115368127822876,-0.2967190444469452
1748517867471752000,1.834751953125,0.8570187091827393,-2.0587079524993896,-0.22586077451705933
1748517867490560000,1.85356005859375,0.5942016839981079,-2.3506929874420166,-0.1366770714521408
1748517867509368300,1.872368408203125,0.5599942207336426,-1.7410674095153809,-0.1525591015815735
1748517867528176600,1.8911767578125,0.49646610021591187,-1.5126105546951294,-0.09025268256664276
1748517867546985000,1.90998486328125,0.30221667885780334,-1.8937791585922241,-0.0035123717971146107
1748517867565793000,1.92879296875,-0.017867282032966614,-2.29082989692688,0.14064757525920868
1748517867584601300,1.947601318359375,-0.2279987335205078,-2.3164854049682617,0.1650814712047577
1748517867603409700,1.96640966796875,-0.04963133856654167,-2.0684814453125,0.014813045971095562
1748517867622217700,1.9852177734375,0.1751604527235031,-1.6714308261871338,-0.15988926589488983
1748517867650430200,2.01343017578125,0.3046600818634033,-0.681858241558075,-0.8293778896331787
1748517867669238500,2.032238525390625,0.29977330565452576,0.04871506989002228,-1.3461546897888184
1748517867688046600,2.051046630859375,0.16905197501182556,0.5239542126655579,-1.4890929460525513
1748517867819704300,2.182704345703125,0.19959434866905212,-0.5315898060798645,-0.4897467792034149
1748517867904341500,2.267341552734375,-0.3623851239681244,-6.230947494506836,0.705070436000824
1748517867960766500,2.323766357421875,-1.6048485040664673,-8.822314262390137,2.2920515537261963
1748517867979574500,2.342574462890625,-2.1937053203582764,-8.329818725585938,2.519286870956421
1748517868007787000,2.370787109375,-2.450261116027832,-7.319477081298828,3.1742677688598633
1748517868026595000,2.389594970703125,-2.198591947555542,-6.996950149536133,3.6372900009155273
1748517868045403400,2.4084033203125,-1.7428998947143555,-4.8699798583984375,4.566999435424805
1748517868064211700,2.427211669921875,-0.5651864409446716,-2.4691972732543945,6.129546642303467
1748517868083020000,2.44602001953125,0.49768781661987305,-2.0440475940704346,7.30237340927124
1748517868101828400,2.464828369140625,1.183211088180542,-0.6598677635192871,7.908334255218506
1748517868120636400,2.483636474609375,1.8661383390426636,1.1616787910461426,7.775169372558594
1748517868139444700,2.50244482421875,2.384136915206909,1.6454697847366333,7.04703950881958
1748517868167657200,2.5306572265625,2.490424156188965,1.3192774057388306,5.202280521392822
1748517868186465300,2.54946533203125,3.648590564727783,3.6956260204315186,0.9115368127822876
1748517868205273600,2.568273681640625,2.470877170562744,2.6058743000030518,1.9695242643356323
1748517868224082000,2.58708203125,1.0793671607971191,1.4524420499801636,3.4955735206604004
1748517868242890200,2.60589013671875,0.35474956035614014,0.10246963053941727,4.575551509857178
1748517868261698600,2.624698486328125,0.40606072545051575,-0.6390989422798157,4.926177501678467
1748517868280506600,2.643506591796875,0.7934905886650085,-0.751494824886322,0.9359707236289978
1748517868299315000,2.66231494140625,1.411668062210083,1.6369179487228394,-1.7151063680648804
1748517868318123300,2.681123291015625,1.0793671607971191,2.9992599487304688,-1.3681451082229614
1748517868346335500,2.70933544921875,-0.43568679690361023,0.5361711978912354,0.22250111401081085
1748517868365143800,2.728143798828125,-0.747218906879425,-0.40575528144836426,1.0679137706756592
1748517868393356300,2.756356201171875,-0.6042806506156921,-0.3104631304740906,1.3085875511169434
1748517868412164600,2.77516455078125,-0.5505260825157166,0.26128992438316345,0.6354338526725769
1748517868440376800,2.803376953125,0.3755183517932892,0.4140017330646515,-1.0773818492889404
1748517868459185200,2.82218505859375,0.612527072429657,-1.307365894317627,-0.3846810758113861
1748517868477993500,2.840993408203125,0.4769189953804016,-2.4166643619537354,-0.1757712960243225
1748517868506206000,2.8692060546875,0.2545706033706665,-2.0733683109283447,-0.6400152444839478
1748517868525014000,2.888013916015625,0.033443886786699295,-1.4026579856872559,-0.7463026642799377
1748517868543822300,2.906822265625,0.20570281147956848,-1.2328424453735352,-0.6754443645477295
1748517868562630700,2.925630615234375,0.4683671295642853,-1.79360032081604,-0.631463348865509
1748517868581439000,2.94443896484375,0.5270084738731384,-2.5290603637695312,-1.0321791172027588
1748517868600247300,2.963247314453125,0.837471604347229,-2.728196620941162,-0.8428165316581726
1748517868619055400,2.982055419921875,-0.27197974920272827,-1.9695242643356323,-0.27595025300979614
1748517868637863700,3.00086376953125,0.6981984376907349,0.0988045409321785,-0.8782456517219543
1748517868656672000,3.019672119140625,0.5135698318481445,1.2484190464019775,-1.1922211647033691
1748517868675480300,3.038480224609375,0.30221667885780334,0.6461237072944641,-0.30282753705978394
1748517868694288400,3.057288330078125,0.8008207678794861,0.6839962005615234,0.4900522232055664
1748517868713096700,3.0760966796875,1.3127107620239258,0.429883748292923,1.1363285779953003
1748517868731905000,3.094905029296875,1.4189982414245605,0.08903098851442337,1.5394878387451172
1748517868750713300,3.11371337890625,1.1685508489608765,-0.006261184345930815,1.6983081102371216
1748517868769521700,3.132521728515625,1.221083641052246,0.525175929069519,1.5529264211654663
1748517868788329700,3.151329833984375,1.9076759815216064,1.70533287525177,1.496728539466858
1748517868807138000,3.170137939453125,2.591825008392334,2.2550954818725586,0.6158867478370667
1748517868825946400,3.1889462890625,2.5844948291778564,0.3993414044380188,-0.6375718116760254
1748517868844754700,3.207754638671875,3.188011884689331,-2.3702399730682373,-1.0871554613113403
1748517868863563000,3.22656298828125,3.888042688369751,-4.0832085609436035,-0.9112313985824585
1748517868882371000,3.24537109375,3.75732159614563,-3.616521120071411,-0.025502873584628105
1748517868901179400,3.264179443359375,1.7060964107513428,-3.168159246444702,1.4674078226089478
1748517868919987700,3.28298779296875,0.8521319031715393,-2.9090073108673096,1.9841846227645874
1748517868938796000,3.301796142578125,0.5160132050514221,-1.7911568880081177,1.4307570457458496
1748517868957604400,3.320604248046875,-0.39292749762535095,-0.5767925381660461,0.5132644176483154
1748517868976412400,3.339412353515625,0.21791976690292358,0.34192174673080444,-0.7463026642799377
1748517868995220700,3.358220703125,1.0744802951812744,0.797613799571991,-0.7340856790542603
1748517869014029000,3.377029052734375,1.183211088180542,0.682774543762207,-0.5263976454734802
1748517869032837400,3.39583740234375,1.2406307458877563,0.6216897964477539,-0.14889401197433472
1748517869051645700,3.414645751953125,1.1392301321029663,0.6094728708267212,0.2652604281902313
1748517869070454000,3.4334541015625,0.9596410393714905,0.22341738641262054,0.7722636461257935
1748517869089262300,3.452262451171875,0.943759024143219,-1.2352858781814575,1.0984560251235962
1748517869108070400,3.4710703125,0.529451847076416,-2.042825937271118,1.8436896800994873
1748517869126878700,3.489878662109375,0.5465555787086487,-2.2786130905151367,1.9304300546646118
1748517869145687000,3.50868701171875,0.943759024143219,-2.1747689247131348,1.4576343297958374
1748517869164495400,3.527495361328125,2.5551741123199463,-0.6171084642410278,0.9738432168960571
1748517869183303700,3.5463037109375,4.131159782409668,-0.7343910932540894,0.1638597846031189
1748517869202112000,3.565112060546875,4.607620716094971,-0.9433009028434753,-0.2698417901992798
1748517869220920300,3.58392041015625,4.302197456359863,0.22097399830818176,-0.013285927474498749
1748517869239728600,3.602728759765625,3.833066463470459,-3.430823564529419,1.6946430206298828
1748517869258537000,3.621536865234375,2.8251686096191406,-0.4631749391555786,0.6928535103797913
1748517869277345000,3.640344970703125,2.0200719833374023,-0.33001023530960083,0.9445225596427917
1748517869296153300,3.6591533203125,1.009730577468872,0.10857810080051422,0.3642176687717438
1748517869314961700,3.677961669921875,0.1104106456041336,-0.17241163551807404,-0.8159392476081848
1748517869333770000,3.69677001953125,-0.8877137899398804,-1.163205862045288,-1.5110833644866943
1748517869352578300,3.715578369140625,-1.2126845121383667,-1.3256912231445312,-1.3803620338439941
1748517869371386600,3.73438671875,-0.5187620520591736,-1.0813523530960083,-0.7585195899009705
1748517869390195000,3.75319482421875,0.10185877978801727,-0.8919897079467773,-0.5007420182228088
1748517869409003300,3.772003173828125,0.1250709742307663,-0.5731274485588074,-0.3089359998703003
1748517869427811600,3.7908115234375,-0.14248012006282806,-0.014813045971095562,-0.14034216105937958
1748517869446620000,3.809619873046875,0.49768781661987305,0.18432316184043884,-0.1623326539993286
1748517869465428200,3.82842822265625,1.7268651723861694,0.06948387622833252,0.01847812905907631
1748517869484236500,3.847236572265625,2.649244546890259,0.13056860864162445,0.31412819027900696
1748517869503044900,3.866044921875,3.40425181388855,0.027946261689066887,0.5144860744476318
1748517869521853200,3.884853271484375,3.6571426391601562,-0.24571330845355988,0.7417212724685669
1748517869540661500,3.90366162109375,2.845937490463257,0.12812520563602448,0.32634514570236206
1748517869559469800,3.9224697265625,1.4153331518173218,0.7389724850654602,-0.9332218766212463
1748517869578278100,3.941278076171875,0.22280654311180115,1.0443960428237915,-1.9447849988937378
1748517869597086500,3.96008642578125,-0.6128324866294861,0.7218687534332275,-0.8867974877357483
1748517869615894800,3.978894775390625,-0.9280297160148621,-0.046577103435993195,0.43018919229507446
1748517869634703000,3.997703125,-0.7301151752471924,-0.24693500995635986,0.4289674758911133
1748517869653511400,4.016511474609375,0.052990999072790146,-0.8150229454040527,0.12232216447591782
1748517869672319700,4.03531982421875,0.24724042415618896,-0.1650814712047577,-0.019394399598240852
1748517869691128000,4.054128173828125,0.23258009552955627,0.4653128981590271,-0.31626617908477783
1748517869709936400,4.072936279296875,0.2680092453956604,0.5874823331832886,-0.1782146841287613
1748517869728744700,4.09174462890625,0.17149536311626434,0.07925742864608765,0.12965233623981476
1748517869747553000,4.110552978515625,0.04443913698196411,-0.007482878863811493,0.08078455179929733
1748517869766361300,4.129361328125,0.0065666078589856625,-0.125987246632576,-0.06337540596723557
1748517869785169700,4.148169677734375,0.011453386396169662,-0.15897299349308014,-0.21853061020374298
1748517869803978000,4.16697802734375,0.037108972668647766,-0.07345438003540039,-0.3052709102630615
1748517869822786300,4.185786376953125,0.06642963737249374,-0.04413371533155441,-0.28694549202919006
1748517869841594600,4.2045947265625,0.12140589207410812,-0.07711946964263916,-0.21975229680538177
1748517869860403000,4.22340283203125,0.21303297579288483,-0.04169032722711563,-0.2551814317703247
1748517869888615700,4.25161572265625,0.14217470586299896,-0.2298312783241272,-0.21242213249206543
1748517869907424000,4.270424072265625,0.10796725004911423,-0.1907370537519455,-0.1782146841287613
1748517869926232300,4.289232421875,0.0456608310341835,-0.15652960538864136,-0.18676654994487762
1748517869945040600,4.30804052734375,0.0725381150841713,0.19287502765655518,-0.2820587158203125
1748517869963849000,4.326848876953125,-0.004428642801940441,-0.09422318637371063,-0.1623326539993286
1748517869982657300,4.3456572265625,-0.07773031294345856,-0.11377029865980148,0.00015271181473508477
1748517870001465600,4.364465576171875,-0.08628217875957489,0.007177455350756645,0.06123743951320648
1748517870020274000,4.38327392578125,-0.04107947647571564,-0.05757235363125801,-0.0328330397605896
1748517870039082200,4.402082275390625,-0.0594048947095871,-0.08689302206039429,-0.05482354015111923
1748517870057890800,4.420890869140625,-0.05329642444849014,-0.072232685983181,-0.08170082420110703
1748517870076699100,4.43969921875,-0.06184828653931618,-0.3214583694934845,-0.15378080308437347
1748517870095507500,4.458507568359375,-0.14248012006282806,-0.3739912211894989,-0.241742804646492
1748517870114315800,4.477315673828125,-0.11804623156785965,-0.17241163551807404,-0.3834593594074249
1748517870133124000,4.4961240234375,-0.056961506605148315,0.04993676394224167,-0.43232715129852295
1748517870151932400,4.514932373046875,-0.07773031294345856,0.111021488904953,-0.33947837352752686
1748517870170740700,4.53374072265625,-0.0325276181101799,-0.01847812905907631,-0.3333698809146881
1748517870198953200,4.561953125,0.005344913341104984,0.09391776472330093,-0.3223746418952942
1748517870217761800,4.58076171875,-0.054518118500709534,0.13545538485050201,-0.32603973150253296
1748517870236570000,4.599570068359375,-0.08628217875957489,0.059710320085287094,-0.2808370292186737
1748517870255378400,4.61837841796875,-0.09239064902067184,-0.07345438003540039,-0.24052110314369202
1748517870283591000,4.6465908203125,-0.06062658876180649,-0.24693500995635986,-0.30160582065582275
1748517870302399200,4.665399169921875,0.004123218823224306,-0.2286095917224884,-0.35413870215415955
1748517870321207600,4.68420751953125,0.08353336155414581,-0.16630317270755768,-0.37979426980018616
1748517870340016000,4.70301611328125,0.1250709742307663,-0.08322793990373611,-0.4506525695323944
1748517870358824400,4.721824462890625,0.15439164638519287,0.041384901851415634,-0.48608171939849854
1748517870377632800,4.7406328125,0.18249061703681946,0.16966283321380615,-0.6033644080162048
1748517870396441000,4.759441162109375,0.23746687173843384,0.15744587779045105,-0.6717792749404907
1748517870415249400,4.77824951171875,0.23991025984287262,0.2038702666759491,-0.7316423058509827
1748517870434057700,4.7970576171875,0.2289150059223175,0.21364383399486542,-0.812274158000946
1748517870452866000,4.815865966796875,0.2032594233751297,0.16844113171100616,-0.9026795625686646
1748517870471674600,4.834674560546875,0.17393875122070312,0.23685602843761444,-0.9307785034179688
1748517870490483000,4.85348291015625,0.11529742181301117,0.14522893726825714,-0.8305995464324951
1748517870509291300,4.872291259765625,0.07864658534526825,0.14767232537269592,-0.7389724850654602
1748517870528099600,4.891099609375,0.07498150318861008,0.005955760832875967,-0.6229115128517151
1748517870546908000,4.909907958984375,0.11529742181301117,-0.06123743951320648,-0.561826765537262
1748517870565716200,4.92871630859375,0.18249061703681946,0.04016320779919624,-0.585038959980011
1748517870584524800,4.94752490234375,0.21058958768844604,-0.030695075169205666,-0.6106945276260376
1748517870603333000,4.9663330078125,0.09452861547470093,-0.07834116369485855,-0.6326850652694702
1748517870622141400,4.985141357421875,-0.025197450071573257,-0.14431266486644745,-0.5825955867767334
1748517870640949800,5.00394970703125,-0.16080553829669952,-0.05635065957903862,-0.41766682267189026
1748517870659758000,5.022758056640625,-0.22189027070999146,-0.05512896552681923,-0.2808370292186737
1748517870678566400,5.04156640625,-0.27808821201324463,-0.2958027720451355,-0.13545538485050201
1748517870697374700,5.060374755859375,-0.2658712565898895,-0.43141087889671326,-0.026724567636847496
1748517870716183000,5.07918310546875,-0.2915268540382385,-0.5328115224838257,0.09544488787651062
1748517870734991600,5.09799169921875,-0.35627666115760803,-0.44607120752334595,0.07101099193096161
1748517870753800000,5.116800048828125,-0.31473904848098755,-0.4253024160861969,0.025808297097682953
1748517870772608300,5.135608154296875,-0.21333840489387512,-0.15530791878700256,-0.09147437661886215
1748517870791416600,5.15441650390625,-0.10949437320232391,0.18065807223320007,-0.39445462822914124
1748517870810225000,5.173224853515625,-0.20600824058055878,0.40789327025413513,-0.429883748292923
1748517870829033200,5.192033203125,-0.46012070775032043,0.24540787935256958,0.03924693539738655
1748517870847841500,5.210841552734375,-0.5383091568946838,0.16844113171100616,0.3764346241950989
1748517870866650000,5.229650146484375,-0.6397097706794739,0.6119162440299988,0.8675557971000671
1748517870885458400,5.24845849609375,-0.728893518447876,1.0920422077178955,1.2352858781814575
1748517870904266800,5.267266845703125,-0.8803836107254028,1.5037531852722168,1.1900831460952759
1748517870923075000,5.286074951171875,-0.8608365058898926,1.602710485458374,0.9677347540855408
1748517870941883400,5.30488330078125,-0.645818293094635,1.4622156620025635,0.885881245136261
1748517870960691700,5.323691650390625,-0.4894413650035858,1.4292298555374146,1.1204465627670288
1748517870979500000,5.3425,-0.41980478167533875,1.4890929460525513,1.3562335968017578
1748517870998308400,5.361308349609375,-0.4234698712825775,1.7651958465576172,1.6005725860595703
1748517871017116700,5.38011669921875,-0.3489464819431305,1.8030683994293213,1.6702091693878174
1748517871035925000,5.398925048828125,-0.2793098986148834,1.7077761888504028,1.690977931022644
1748517871054733300,5.4177333984375,-0.23166382312774658,1.4499987363815308,1.7251853942871094
1748517871073542000,5.4365419921875,-0.13514995574951172,1.1665655374526978,1.7068599462509155
1748517871092350200,5.45535009765625,-0.07650861889123917,0.9857547879219055,1.6017942428588867
1748517871111158500,5.474158447265625,-0.1913478970527649,0.7291989326477051,1.478403091430664
1748517871129966800,5.492966796875,-0.4161396920681,0.3981196880340576,1.3366864919662476
1748517871148775200,5.511775146484375,-0.5236487984657288,0.2527380585670471,1.164427638053894
1748517871167583500,5.53058349609375,-0.5517477989196777,0.1244601309299469,1.1277767419815063
1748517871186391800,5.549391845703125,-0.4381301999092102,0.05360184609889984,1.284153699874878
1748517871205200100,5.5682001953125,-0.20967331528663635,-0.02214321307837963,1.1668709516525269
1748517871224008400,5.587008544921875,-0.09483403712511063,0.07314895838499069,0.9274188280105591
1748517871242816800,5.605816650390625,-0.1375933438539505,-0.03802524134516716,0.8822161555290222
1748517871261625000,5.624625,-0.2145601063966751,-0.38254308700561523,0.6830799579620361
1748517871280433400,5.643433349609375,-0.3489464819431305,-0.5462501645088196,0.40575528144836426
1748517871299241700,5.66224169921875,-0.3855973184108734,-0.26403874158859253,0.6415423154830933
1748517871318050000,5.681050048828125,-0.3379512429237366,-0.18096350133419037,0.8284615874290466
1748517871336858400,5.6998583984375,-0.28664007782936096,-0.3067980408668518,0.6085565686225891
1748517871355666700,5.718666748046875,-0.2047865390777588,-0.2970244884490967,0.515707790851593
1748517871374475000,5.73747509765625,-0.14125843346118927,-0.14553436636924744,0.5877877473831177
1748517871393283300,5.756283447265625,-0.09239064902067184,0.041384901851415634,0.6574243903160095
1748517871412091600,5.775091552734375,-0.11926792562007904,0.020616095513105392,0.6305471062660217
1748517871430900000,5.79389990234375,-0.2145601063966751,0.060932014137506485,0.5047125220298767
1748517871449708300,5.812708251953125,-0.31351736187934875,0.060932014137506485,0.2725905776023865
1748517871468516600,5.8315166015625,-0.39048412442207336,0.23685602843761444,0.17485502362251282
1748517871487325000,5.850324951171875,-0.4662291705608368,0.12690351903438568,0.2921377122402191
1748517871506133200,5.86913330078125,-0.40514445304870605,-0.06368082761764526,0.5975613594055176
1748517871524941600,5.887941650390625,-0.3611634373664856,-0.279920756816864,0.7221741676330566
1748517871543749600,5.90674951171875,-0.16813570261001587,-1.0923476219177246,0.39476004242897034
1748517871562558000,5.925557861328125,-0.09361234307289124,-0.9054283499717712,0.12110047042369843
1748517871581366300,5.9443662109375,-0.1766875684261322,0.1635543555021286,-0.2722851634025574
1748517871600174600,5.963174560546875,-0.18401773273944855,1.4646589756011963,-0.3712424337863922
1748517871618983000,5.98198291015625,-0.11804623156785965,1.5501775741577148,0.10033166408538818
1748517871637791200,6.000791259765625,0.04199574887752533,0.9637642502784729,0.27625566720962524
1748517871656599600,6.019599609375,0.08842013776302338,-0.4802786707878113,0.2029540091753006
1748517871675408000,6.038407958984375,0.0029015245381742716,-0.5218162536621094,0.24815669655799866
1748517871694216200,6.05721630859375,-0.005650337319821119,0.06704048812389374,0.16996824741363525
1748517871713024300,6.076024169921875,0.0029015245381742716,0.3626905679702759,-0.026724567636847496
1748517871731832600,6.09483251953125,0.02367033064365387,0.4237752854824066,0.1785201132297516
1748517871750641000,6.113640869140625,-0.16691401600837708,0.4030064642429352,0.3336753249168396
1748517871769449200,6.13244921875,-0.3489464819431305,0.3345915973186493,0.3593308925628662
1748517871788257500,6.151257568359375,-0.23532891273498535,0.15378080308437347,0.5523586273193359
1748517871807065900,6.17006591796875,0.0065666078589856625,0.07314895838499069,1.0923476219177246
1748517871825874200,6.188874267578125,0.15561333298683167,0.2576248347759247,1.0874608755111694
1748517871844682200,6.20768212890625,0.19959434866905212,0.2930539846420288,0.3581092059612274
1748517871863490600,6.226490478515625,0.3498627543449402,0.4152234196662903,-0.1391204595565796
1748517871882299000,6.245298828125,0.4402681589126587,0.9124531149864197,0.024586603045463562
1748517871901107200,6.264107177734375,0.29977330565452576,1.2252068519592285,0.40819868445396423
1748517871919915500,6.28291552734375,0.19226416945457458,0.6607840061187744,0.538919985294342
1748517871938723600,6.3017236328125,0.22647161781787872,-0.10888352245092392,0.4680617153644562
1748517871957532000,6.320531982421875,0.18126893043518066,-0.3190149664878845,0.48760882019996643
1748517871976340200,6.33934033203125,0.07498150318861008,-0.15530791878700256,0.5047125220298767
1748517871995148500,6.3581484375,-0.054518118500709534,0.2551814317703247,0.49860408902168274
1748517872013956600,6.37695654296875,-0.1498102843761444,0.5935907959938049,0.4240806996822357
1748517872032765000,6.395764892578125,-0.1522536724805832,0.631463348865509,0.3177932798862457
1748517872051573200,6.4145732421875,-0.10827267915010452,0.4775298535823822,0.20661908388137817
1748517872070381600,6.433381591796875,-0.04840964451432228,0.49585527181625366,0.06856760382652283
1748517872089189600,6.452189697265625,0.010231691412627697,0.6241331696510315,-0.008399149402976036
1748517872107998000,6.470998046875,0.0859767496585846,0.6290199756622314,-0.019394399598240852
1748517872126806300,6.48980615234375,0.14828316867351532,0.5325061082839966,-0.0022906772792339325
1748517872145614300,6.5086142578125,0.1385096162557602,0.4799732267856598,0.0050394898280501366
1748517872164422700,6.527422607421875,0.08353336155414581,0.48608171939849854,-0.026724567636847496
1748517872183231000,6.54623095703125,0.13240113854408264,0.4359922409057617,-0.07925742864608765
1748517872202039000,6.5650390625,0.23380178213119507,0.4030064642429352,-0.12934690713882446
1748517872220847400,6.583847412109375,0.27656111121177673,0.42011019587516785,-0.2283041626214981
1748517872239655700,6.60265576171875,0.3058817684650421,0.5716003179550171,-0.4127800464630127
1748517872258463700,6.621463623046875,0.4011739492416382,0.872137188911438,-0.5789304971694946
1748517872277272000,6.64027197265625,0.5257867574691772,1.03828763961792,-0.6070294380187988
1748517872296080400,6.659080322265625,0.5722111463546753,1.1885560750961304,-0.5679352283477783
1748517872314888400,6.677888427734375,0.5233433842658997,1.4719891548156738,-0.4262186884880066
1748517872333696800,6.69669677734375,0.49524441361427307,1.509861707687378,-0.20631365478038788
1748517872352504800,6.7155048828125,0.49524441361427307,1.1836693286895752,-0.1391204595565796
1748517872371313200,6.734313232421875,0.48424917459487915,0.8648070096969604,-0.2441861927509308
1748517872390121500,6.75312158203125,0.44271156191825867,0.7634063363075256,-0.30282753705978394
1748517872408929500,6.771929443359375,0.3718532621860504,0.616802990436554,-0.3174878656864166
1748517872427737900,6.79073779296875,0.26190075278282166,0.5984776020050049,-0.40667155385017395
1748517872446546000,6.8095458984375,0.13362284004688263,0.6558972597122192,-0.4506525695323944
1748517872465354200,6.828354248046875,0.03833066672086716,0.682774543762207,-0.5899257659912109
1748517872484162600,6.84716259765625,0.033443886786699295,0.5642701387405396,-0.6901046633720398
1748517872502970600,6.865970703125,0.0725381150841713,0.5667135715484619,-0.7218687534332275
1748517872521779000,6.884779052734375,0.09941539168357849,0.8867974877357483,-0.6962131857872009
1748517872540587000,6.9035869140625,0.1910424828529358,0.9820896983146667,-0.5984776020050049
1748517872559395000,6.92239501953125,0.25212720036506653,0.9112313985824585,-0.6265766024589539
1748517872578203400,6.941203369140625,0.24724042415618896,0.8428165316581726,-0.8000571727752686
1748517872597011700,6.96001171875,0.2716743052005768,0.6925480961799622,-1.0309574604034424
1748517872615819800,6.97881982421875,0.18004722893238068,0.8379297256469727,-1.3498197793960571
1748517872634627800,6.9976279296875,0.13973131775856018,0.6180247068405151,-1.5281871557235718
1748517872653436200,7.016436279296875,0.15316994488239288,0.3968980014324188,-1.6527999639511108
1748517872672244200,7.035244140625,0.05421269312500954,0.29794076085090637,-1.7871863842010498
1748517872691052500,7.054052490234375,0.0004581354442052543,-0.00992626789957285,-1.8287240266799927
1748517872709860600,7.072860595703125,-0.08261708915233612,0.09269607067108154,-1.713884711265564
1748517872728669000,7.0916689453125,-0.014202198944985867,0.05360184609889984,-1.750535488128662
1748517872747477000,7.11047705078125,0.12995775043964386,0.21364383399486542,-1.6662386655807495
1748517872766285300,7.129285400390625,0.15439164638519287,0.429883748292923,-1.6992243528366089
1748517872785093400,7.14809326171875,0.12262758612632751,0.4017847776412964,-2.0009829998016357
1748517872803901400,7.1669013671875,0.15927842259407043,0.39445462822914124,-1.9667754173278809
1748517872822709800,7.185709716796875,0.2276933193206787,0.49829864501953125,-1.8189504146575928
1748517872841517800,7.204517822265625,0.3046600818634033,0.5410579442977905,-1.6747905015945435
1748517872860326100,7.223326171875,0.2655658423900604,0.5899257659912109,-1.8775917291641235
1748517872888538400,7.251538330078125,0.15561333298683167,0.4359922409057617,-1.9313462972640991
1748517872916750600,7.27975048828125,0.12995775043964386,0.6021426916122437,-1.4023525714874268
1748517872935558700,7.29855859375,-0.12293300777673721,0.6607840061187744,-1.2142115831375122
1748517872954366700,7.31736669921875,-0.2548760175704956,0.3064926266670227,-1.2765181064605713
1748517872973175000,7.336175048828125,-0.21211670339107513,0.08170082420110703,-1.3278292417526245
1748517872991983000,7.354983154296875,-0.06306997686624527,0.3333698809146881,-1.4096827507019043
1748517873010791200,7.373791259765625,-0.0032069480512291193,0.760962963104248,-1.3095037937164307
1748517873029599500,7.392599609375,-0.0007635590736754239,1.0114103555679321,-1.0957072973251343
1748517873048407600,7.411407470703125,0.04199574887752533,1.02851402759552,-1.0175188779830933
1748517873067215600,7.430215576171875,-0.025197450071573257,0.8379297256469727,-0.9723161458969116
1748517873086024000,7.44902392578125,-0.004428642801940441,0.5544965863227844,-0.9955283403396606
1748517873104832000,7.46783203125,0.10796725004911423,0.5654918551445007,-1.03828763961792
1748517873123640000,7.48664013671875,0.07742489129304886,0.5227325558662415,-0.9210049510002136
1748517873142448000,7.5054482421875,0.04932591691613197,0.6644490957260132,-0.5435013771057129
1748517873161256400,7.52425634765625,0.24846212565898895,1.0309574604034424,-0.2307475507259369
1748517873180064500,7.543064453125,0.23380178213119507,1.1690089702606201,-0.13179029524326324
1748517873198872600,7.56187255859375,0.2985515892505646,1.02851402759552,-0.10369132459163666
1748517873217680600,7.5806806640625,0.29977330565452576,0.6045860648155212,-0.24662958085536957
1748517873236489000,7.599489013671875,0.3217637836933136,0.3248180150985718,-0.2686200737953186
1748517873255297000,7.618297119140625,0.45737189054489136,0.39445462822914124,-0.18065807223320007
1748517873274105000,7.63710498046875,0.5282301902770996,0.453095942735672,-0.23196925222873688
1748517873292913200,7.6559130859375,0.49768781661987305,0.35658207535743713,-0.2588465213775635
1748517873311721200,7.67472119140625,0.4524851143360138,0.2673983871936798,-0.1757712960243225
1748517873330529300,7.693529296875,0.43049460649490356,0.22097399830818176,-0.0988045409321785
1748517873349337600,7.712337646484375,0.402395635843277,0.18554484844207764,-0.03161134570837021
1748517873368145700,7.731145751953125,0.40361732244491577,0.1782146841287613,0.14309096336364746
1748517873386953700,7.74995361328125,0.3755183517932892,0.21242213249206543,0.35444411635398865
1748517873405761800,7.76876171875,0.7336275577545166,1.0407310724258423,0.9420791864395142
1748517873424569900,7.78756982421875,0.9168817400932312,1.8397191762924194,1.4222050905227661
1748517873443378000,7.8063779296875,0.8411366939544678,1.6393613815307617,1.4893983602523804
1748517873462186000,7.82518603515625,0.3229855000972748,0.43232715129852295,0.9909469485282898
1748517873480994000,7.843994140625,0.3706315755844116,-0.2664821147918701,0.7001836895942688
1748517873499802000,7.862802001953125,0.5685460567474365,0.1256818175315857,0.5230379700660706
1748517873528014300,7.891014404296875,0.2777827978134155,-0.09422318637371063,0.025808297097682953
1748517873546822400,7.909822509765625,0.0004581354442052543,-0.6109999418258667,0.13453911244869232
1748517873565630500,7.92863037109375,0.04932591691613197,-0.8895463347434998,0.4253024160861969
1748517873584438500,7.9474384765625,0.2973299026489258,-0.5548020005226135,0.6329904794692993
1748517873603246600,7.96624658203125,0.3596363365650177,-0.06368082761764526,0.7490514516830444
1748517873622054700,7.9850546875,0.2020377367734909,0.1892099380493164,0.8040276765823364
1748517873640862700,8.00386279296875,0.0847550556063652,0.07925742864608765,0.7148439884185791
1748517873659670800,8.0226708984375,0.04199574887752533,-0.11987877637147903,0.6488724946975708
1748517873678478800,8.041478759765624,-0.023975754156708717,-0.09666658192873001,0.7148439884185791
1748517873697287000,8.060286865234374,-0.021532366052269936,0.06704048812389374,0.9127585291862488
1748517873716095000,8.079094970703125,-0.13392825424671173,0.3846810758113861,0.9555178284645081
1748517873734903000,8.097903076171875,-0.15836215019226074,0.3309265077114105,1.1192249059677124
1748517873753711000,8.116711181640625,-0.0984991192817688,-0.08078455179929733,0.9347490072250366
1748517873772519200,8.135519287109375,-0.1913478970527649,-0.05268557742238045,0.8871029615402222
1748517873791327200,8.1543271484375,-0.27808821201324463,-0.24815669655799866,1.103342890739441
1748517873810135300,8.17313525390625,-0.2438807636499405,-0.2848075330257416,0.9665130972862244
1748517873828943400,8.191943359375,-0.18523943424224854,-0.13576079905033112,0.9933903813362122
1748517873847751400,8.21075146484375,-0.1388150453567505,-0.3703261613845825,0.9261971712112427
1748517873866559500,8.2295595703125,-0.0984991192817688,-0.5181511640548706,0.7881456613540649
1748517873885367600,8.248367431640625,-0.09239064902067184,-0.5181511640548706,0.7649334669113159
1748517873904175600,8.267175537109376,-0.08872556686401367,-0.5047125220298767,0.80280601978302
1748517873922983700,8.285983642578126,-0.09727742522954941,-0.5596888065338135,0.7001836895942688
1748517873941791500,8.30479150390625,-0.072843536734581,-0.4411844313144684,0.6843016147613525
1748517873960599600,8.323599609375,-0.054518118500709534,-0.538919985294342,0.7160657048225403
1748517873979407600,8.34240771484375,-0.06062658876180649,-0.567018985748291,0.6061131954193115
1748517873998215700,8.361215576171874,-0.05329642444849014,-0.3874298632144928,0.6708629727363586
1748517874017023700,8.380023681640624,-0.05085303261876106,-0.47417017817497253,0.7722636461257935
1748517874035831800,8.398831787109375,-0.06673506647348404,-0.6403206586837769,0.7075138092041016
1748517874054639900,8.417639892578125,-0.11438114941120148,-0.6207735538482666,0.6415423154830933
1748517874073447700,8.43644775390625,-0.1766875684261322,-0.5951179265975952,0.7172874212265015
1748517874092255700,8.455255859375,-0.21211670339107513,-0.6610894203186035,0.80280601978302
1748517874111063800,8.474063720703125,-0.2560977041721344,-0.7991409301757812,0.645207405090332
1748517874129872000,8.492871826171875,-0.2279987335205078,-0.5951179265975952,0.575570821762085
1748517874148680000,8.511679931640625,-0.23166382312774658,-0.5535803437232971,0.626882016658783
1748517874167487700,8.53048779296875,-0.23166382312774658,-0.6439857482910156,0.5352548956871033
1748517874186295800,8.5492958984375,-0.23410721123218536,-0.7160657048225403,0.39231663942337036
1748517874205103900,8.568103759765625,-0.20722992718219757,-0.6610894203186035,0.33001023530960083
1748517874223912000,8.586911865234375,-0.19501298666000366,-0.6696413159370422,0.254265159368515
1748517874242720000,8.605719970703126,-0.1779092699289322,-0.5865660905838013,0.2664821147918701
1748517874261527800,8.62452783203125,-0.2170034945011139,-0.5780141949653625,0.2408265322446823
1748517874280336000,8.6433359375,-0.21822518110275269,-0.5315898060798645,0.21883602440357208
1748517874299144000,8.66214404296875,-0.23166382312774658,-0.6048914790153503,0.149199441075325
1748517874317951700,8.68095166015625,-0.16080553829669952,-0.5816792845726013,0.03924693539738655
1748517874336759800,8.699759765625,-0.23410721123218536,-0.4778352677822113,-0.026724567636847496
1748517874355567900,8.71856787109375,-0.29885703325271606,-0.3727695345878601,-0.0975828468799591
1748517874374376000,8.7373759765625,-0.31351736187934875,-0.3067980408668518,-0.08658760040998459
1748517874393183700,8.756183837890624,-0.31596073508262634,-0.3727695345878601,-0.18310146033763885
1748517874411991800,8.77499169921875,-0.2805316150188446,-0.39109495282173157,-0.24907296895980835
1748517874430800000,8.7937998046875,-0.2951919436454773,-0.3507790267467499,-0.3089359998703003
1748517874449607700,8.812607666015625,-0.252432644367218,-0.24815669655799866,-0.2796153426170349
1748517874468415700,8.831415771484375,-0.2670929729938507,-0.23838314414024353,-0.3211529552936554
1748517874487223800,8.850223876953125,-0.22555534541606903,-0.27503398060798645,-0.3749074935913086
1748517874506031600,8.869031494140625,-0.22433365881443024,-0.30435463786125183,-0.4262186884880066
1748517874524839700,8.887839599609375,-0.19379130005836487,-0.23349636793136597,-0.5361711978912354
1748517874543647500,8.9066474609375,-0.18035265803337097,-0.0844496339559555,-0.5777087807655334
1748517874562455600,8.92545556640625,-0.19501298666000366,0.04749337583780289,-0.6326850652694702
1748517874581263600,8.944263671875,-0.19501298666000366,0.019394399598240852,-0.6644490957260132
1748517874600071400,8.963071533203125,-0.19501298666000366,-0.045355409383773804,-0.6045860648155212
1748517874618879500,8.98187939453125,-0.2145601063966751,-0.11865708231925964,-0.6253548860549927
1748517874637687600,9.0006875,-0.07040014863014221,0.05726693198084831,-0.6449019908905029
1748517874656495400,9.019495361328126,-0.08139539510011673,0.2808370292186737,-0.6400152444839478
1748517874675303400,9.038303466796876,-0.17057909071445465,0.12812520563602448,-0.9002361297607422
1748517874694111200,9.057111328125,-0.06429167091846466,-0.031916771084070206,-1.194664478302002
1748517874712919300,9.075919189453124,-0.054518118500709534,0.2845021188259125,-1.264301061630249
1748517874731727000,9.09472705078125,-0.1119377613067627,0.553274929523468,-1.2484190464019775
1748517874750535200,9.11353515625,-0.06184828653931618,0.4909684956073761,-1.219098448753357
1748517874769343200,9.13234326171875,-0.021532366052269936,0.37735089659690857,-1.2252068519592285
1748517874788151000,9.151151123046875,0.033443886786699295,0.4677563011646271,-1.2276502847671509
1748517874806959000,9.169958984375,0.013896775431931019,0.530062735080719,-1.2924001216888428
1748517874825767000,9.188766845703125,0.052990999072790146,0.49707695841789246,-1.233758807182312
1748517874844574700,9.20757470703125,0.05421269312500954,0.5190674662590027,-1.1885560750961304
1748517874863382800,9.2263828125,0.04810422286391258,0.5166240930557251,-1.2276502847671509
1748517874882190800,9.24519091796875,0.037108972668647766,0.5141806602478027,-1.303395390510559
1748517874900998700,9.26399853515625,0.020005248486995697,0.5642701387405396,-1.2985085248947144
1748517874919806700,9.282806640625,-0.04718795046210289,0.5679352283477783,-1.2752963304519653
1748517874938614500,9.301614501953125,-0.06306997686624527,0.44576579332351685,-1.2826265096664429
1748517874957422300,9.32042236328125,-0.0325276181101799,0.35413870215415955,-1.2313153743743896
1748517874976230400,9.33923046875,-0.08139539510011673,0.3211529552936554,-1.1848909854888916
1748517874995038200,9.3580380859375,-0.09727742522954941,0.3089359998703003,-1.1103676557540894
1748517875013846300,9.37684619140625,-0.025197450071573257,0.3443651497364044,-1.0248489379882812
1748517875032654000,9.395654052734375,0.06276455521583557,0.34070006012916565,-0.9173398613929749
1748517875051462100,9.414462158203126,0.08353336155414581,0.26373329758644104,-0.8660287261009216
1748517875070270000,9.43327001953125,0.04199574887752533,0.23685602843761444,-0.7463026642799377
1748517875089078000,9.452078125,0.013896775431931019,0.34314343333244324,-0.5691569447517395
1748517875107885800,9.4708857421875,-0.08261708915233612,0.31504446268081665,-0.4152234196662903
1748517875126693600,9.489693603515626,-0.08017370104789734,0.2954973578453064,-0.28572380542755127
1748517875145501700,9.508501708984374,-0.12048961967229843,0.36879903078079224,-0.13545538485050201
1748517875164309500,9.5273095703125,-0.2047865390777588,0.3883461356163025,0.007482878863811493
1748517875183117300,9.546117431640624,-0.26342788338661194,0.3333698809146881,0.0978882759809494
1748517875201925400,9.56492529296875,-0.28786176443099976,0.2918322682380676,0.26159533858299255
1748517875220733200,9.583733154296874,-0.2915268540382385,0.33947837352752686,0.4521796703338623
1748517875239541200,9.602541259765625,-0.23288552463054657,0.346808522939682,0.7014053463935852
1748517875258349000,9.62134912109375,-0.13514995574951172,0.26251161098480225,0.9591829180717468
1748517875277156900,9.640156982421875,-0.04230117425322533,0.13301199674606323,1.1680927276611328
1748517875295965000,9.65896484375,0.005344913341104984,-0.051463883370161057,1.3134742975234985
1748517875314772700,9.677772705078125,0.009009997360408306,-0.09910997003316879,1.385554313659668
1748517875333580500,9.69658056640625,-0.02641914412379265,-0.07101099193096161,1.2780451774597168
1748517875352388600,9.715388671875,0.08842013776302338,-0.08200624585151672,1.1436587572097778
1748517875371196400,9.734196533203125,0.08108997344970703,-0.031916771084070206,0.8638907074928284
1748517875390004200,9.753004150390625,0.13484452664852142,-0.025808297097682953,0.5303681492805481
1748517875408812300,9.771812255859375,0.16538690030574799,-0.1382041871547699,0.254265159368515
1748517875427620000,9.7906201171875,0.1495048701763153,-0.16752485930919647,0.23593975603580475
1748517875446428000,9.809427978515625,0.19470755755901337,-0.13331741094589233,0.43385425209999084
1748517875465235700,9.828235595703125,0.24846212565898895,-0.09055810421705246,0.6525375843048096
1748517875484043800,9.847043701171875,0.26067906618118286,-0.07956285774707794,0.8638907074928284
1748517875502851600,9.8658515625,0.25090551376342773,-0.14675605297088623,0.9970554113388062
1748517875521659400,9.884659423828126,0.24479703605175018,-0.19318044185638428,1.0899041891098022
1748517875540467200,9.90346728515625,0.22158484160900116,-0.2408265322446823,1.0398147106170654
1748517875559275300,9.922275146484376,0.20692451298236847,-0.2286095917224884,0.9885035753250122
1748517875578083000,9.9410830078125,0.188599094748497,-0.2579302489757538,0.9005415439605713
1748517875596891000,9.959890869140626,0.15683503448963165,-0.2298312783241272,0.8321266770362854
1748517875615698700,9.97869873046875,0.11407572776079178,-0.2689255177974701,0.8138012886047363
1748517875634506500,9.997506591796874,0.20081603527069092,-0.21883602440357208,0.7466080784797668
1748517875653314600,10.016314453125,0.2545706033706665,-0.1760767251253128,0.6158867478370667
1748517875672122400,10.035122314453124,0.2545706033706665,0.062153708189725876,0.5254813432693481
1748517875690930200,10.05393017578125,0.19348587095737457,0.04871506989002228,0.6549809575080872
1748517875709738000,10.072738037109374,-0.022754060104489326,-0.011147962883114815,0.5022691488265991
1748517875728545800,10.0915458984375,-0.14125843346118927,0.008399149402976036,0.8150229454040527
1748517875747353900,10.110353759765625,-0.13514995574951172,-0.39231663942337036,0.9359707236289978
1748517875766161700,10.12916162109375,-0.0032069480512291193,-0.5267030596733093,0.9335273504257202
1748517875784969500,10.147969482421875,0.12751436233520508,-0.5706840753555298,0.9384140968322754
1748517875803777300,10.16677734375,0.22158484160900116,-0.5853443741798401,0.6855233311653137
1748517875822585000,10.185585205078125,0.27289602160453796,-0.362995982170105,0.5682406425476074
1748517875841393000,10.204392822265625,0.2411319613456726,-0.3752129375934601,0.3617742955684662
1748517875860200700,10.22320068359375,0.21303297579288483,-0.33856210112571716,0.3605526089668274
1748517875879008500,10.242008544921875,0.07864658534526825,-0.2921377122402191,0.5120427012443542
1748517875897816600,10.260816650390625,-0.08872556686401367,-0.39353835582733154,0.41797223687171936
1748517875916624400,10.279624267578125,-0.09605573117733002,-0.3593308925628662,0.40575528144836426
1748517875935432200,10.29843212890625,-0.055739812552928925,-0.4937172830104828,0.41675055027008057
1748517875954240000,10.317239990234375,-0.04230117425322533,-0.5462501645088196,0.37887802720069885
1748517875973047800,10.3360478515625,-0.03374931216239929,-0.5034908652305603,0.2945810854434967
1748517875991855600,10.354855712890625,-0.11315945535898209,-0.43263256549835205,0.2163926362991333
1748517876010663400,10.373663330078125,-0.06795676052570343,-0.3874298632144928,0.31290650367736816
1748517876029471200,10.39247119140625,-0.13148486614227295,-0.44607120752334595,0.2689255177974701
1748517876048279000,10.411279052734375,-0.12904147803783417,-0.45706647634506226,0.23716144263744354
1748517876067086800,10.4300869140625,-0.072843536734581,-0.47417017817497253,0.15897299349308014
1748517876085894700,10.448894775390626,-0.025197450071573257,-0.36543938517570496,0.028251685202121735
1748517876104702500,10.467702392578126,-0.03008422814309597,-0.2921377122402191,0.02092151902616024
1748517876123510300,10.48651025390625,-0.056961506605148315,-0.2701472043991089,-0.060932014137506485
1748517876142318000,10.505318115234376,-0.05207473039627075,-0.1785201132297516,-0.14889401197433472
1748517876161126000,10.5241259765625,-0.07406523078680038,-0.07834116369485855,-0.09269607067108154
1748517876179933700,10.54293359375,-0.09605573117733002,0.021837789565324783,-0.0328330397605896
1748517876198741500,10.561741455078124,-0.08872556686401367,0.07437065243721008,-0.14156384766101837
1748517876217549300,10.58054931640625,-0.08017370104789734,0.20142687857151031,-0.12934690713882446
1748517876236357000,10.599357177734374,-0.04107947647571564,0.2429644912481308,0.047798797488212585
1748517876255165000,10.6181650390625,-0.11315945535898209,0.0010689827613532543,-0.012064233422279358
1748517876273972700,10.63697265625,-0.038636088371276855,0.15744587779045105,-0.1122431829571724
1748517876292780500,10.655780517578124,-0.07040014863014221,0.23807771503925323,-0.09147437661886215
1748517876311588400,10.67458837890625,-0.023975754156708717,0.021837789565324783,-0.18432316184043884
1748517876330396200,10.693396240234375,-0.01175880990922451,-0.21272756159305573,-0.19531841576099396
1748517876349204000,10.712203857421875,-0.17302247881889343,-0.2432699203491211,-0.1757712960243225
1748517876368011800,10.73101171875,-0.2658712565898895,-0.4619532525539398,-0.11468657106161118
1748517876386819600,10.749819580078125,-0.2793098986148834,-0.5425850749015808,-0.06337540596723557
1748517876405627100,10.768627197265625,-0.13514995574951172,-0.3067980408668518,0.11987877637147903
1748517876424435000,10.78743505859375,-0.1644706279039383,-0.31534990668296814,0.150421142578125
1748517876443242800,10.80624267578125,-0.10094250738620758,-0.31290650367736816,0.07345438003540039
1748517876462050600,10.825050537109375,-0.010537114925682545,-0.2811424434185028,-0.07925742864608765
1748517876480858400,10.8438583984375,-0.016645587980747223,-0.04291202127933502,-0.17210622131824493
1748517876499666200,10.862666259765625,-0.08261708915233612,0.2551814317703247,-0.31504446268081665
1748517876518474000,10.881473876953125,-0.058183200657367706,0.08047912269830704,-0.5056288242340088
1748517876537281800,10.90028173828125,-0.0459662564098835,-0.23471805453300476,-0.5960342288017273
1748517876556089300,10.91908935546875,-0.15958385169506073,-0.3642176687717438,-0.6033644080162048
1748517876574897200,10.937897216796875,-0.19501298666000366,-0.43018919229507446,-0.60825115442276
1748517876593705000,10.956705078125,-0.1913478970527649,-0.5340332388877869,-0.6497887969017029
1748517876612512800,10.9755126953125,-0.11926792562007904,-0.46073153614997864,-0.4934118688106537
1748517876631320600,10.994320556640625,-0.04107947647571564,-0.2652604281902313,-0.16111096739768982
1748517876650128400,11.01312841796875,-0.04352286830544472,-0.3104631304740906,-0.1513374149799347
1748517876668936000,11.03193603515625,-0.04230117425322533,-0.435075968503952,-0.4091149568557739
1748517876687743700,11.05074365234375,-0.08017370104789734,-0.38009971380233765,-0.4274403750896454
1748517876706551600,11.069551513671875,-0.2707580327987671,-0.14553436636924744,-0.3602471649646759
1748517876725359400,11.088359375,-0.32573428750038147,0.15988926589488983,-0.3602471649646759
1748517876744167200,11.107167236328126,-0.3599417507648468,0.3321481943130493,-0.5716003179550171
1748517876762974700,11.125974609375,-0.29030516743659973,0.6693359017372131,-0.6583406329154968
1748517876781782500,11.144782470703126,-0.22555534541606903,0.7279772162437439,-0.6485670804977417
1748517876800590300,11.16359033203125,-0.14858859777450562,0.5215108394622803,-0.6546755433082581
1748517876819398100,11.182398193359376,-0.09727742522954941,0.3223746418952942,-0.6009209752082825
1748517876838206000,11.2012060546875,-0.14370182156562805,0.31260108947753906,-0.5679352283477783
1748517876857013500,11.220013427734376,-0.17302247881889343,0.43477052450180054,-0.5508314967155457
1748517876875821300,11.2388212890625,-0.16691401600837708,0.30038413405418396,-0.5789304971694946
1748517876894629000,11.257629150390626,-0.09239064902067184,0.0975828468799591,-0.5740436911582947
1748517876913436700,11.276436767578126,-0.039857782423496246,0.0462716780602932,-0.5373928546905518
1748517876932244500,11.295244384765626,-0.07650861889123917,0.10002623498439789,-0.5887040495872498
1748517876951052300,11.31405224609375,-0.09239064902067184,-0.016034740954637527,-0.7182036638259888
1748517876979263700,11.342263671875,-0.08994726091623306,-0.07711946964263916,-0.7230904698371887
1748517876998071600,11.361071533203125,-0.10094250738620758,-0.09910997003316879,-0.7096518278121948
1748517877016879400,11.37987939453125,-0.09116895496845245,-0.11621369421482086,-0.705986738204956
1748517877035687000,11.39868701171875,-0.010537114925682545,-0.05268557742238045,-0.6204680800437927
1748517877054494700,11.41749462890625,-0.0325276181101799,0.021837789565324783,-0.6473453640937805
1748517877073302500,11.436302490234375,-0.0068720318377017975,0.029167955741286278,-0.682774543762207
1748517877092110000,11.455110107421875,0.032222192734479904,-0.0331384651362896,-0.7707365155220032
1748517877110918000,11.47391796875,-0.055739812552928925,-0.051463883370161057,-0.8586985468864441
1748517877129725700,11.4927255859375,-0.058183200657367706,-0.09422318637371063,-0.8758022785186768
1748517877148533200,11.511533203125,-0.054518118500709534,-0.12110047042369843,-0.9087880253791809
1748517877167341000,11.530341064453125,-0.09116895496845245,-0.17241163551807404,-1.006523609161377
1748517877186148900,11.54914892578125,-0.1913478970527649,-0.39231663942337036,-1.1824475526809692
1748517877204956400,11.567956298828125,-0.18401773273944855,-0.35200074315071106,-1.2496408224105835
1748517877223764200,11.58676416015625,-0.2805316150188446,-0.4509579837322235,-1.3779187202453613
1748517877242572000,11.605572021484376,-0.4637857675552368,-0.5560237169265747,-1.5758332014083862
1748517877261379600,11.624379638671876,-0.5456393361091614,-0.6171084642410278,-1.722436547279358
1748517877280187400,11.6431875,0.0065666078589856625,0.6571189165115356,-1.3131688833236694
1748517877298995000,11.661994873046876,0.2276933193206787,1.2948434352874756,-0.8855758309364319
1748517877317802800,11.680802734375,-0.5248705148696899,0.6852179169654846,-0.9173398613929749
1748517877336610600,11.699610595703126,-0.8645015954971313,-0.32512345910072327,-1.1592353582382202
1748517877355418000,11.718418212890626,-0.760657548904419,0.08170082420110703,-1.2459757328033447
1748517877374226000,11.737225830078126,-0.913369357585907,0.20631365478038788,-1.209324836730957
1748517877393033500,11.756033447265626,-1.0074398517608643,-0.08689302206039429,-1.0553913116455078
1748517877411841300,11.77484130859375,-1.1320526599884033,-0.5352548956871033,-0.9833113551139832
1748517877430648800,11.79364892578125,-1.2810994386672974,-0.6610894203186035,-1.0175188779830933
1748517877449456600,11.81245654296875,-1.356844425201416,-0.59023118019104,-1.015075445175171
1748517877468264400,11.831264404296874,-1.356844425201416,-0.6403206586837769,-0.9405520558357239
1748517877487072000,11.850072021484374,-1.356844425201416,-0.6048914790153503,-0.7878402471542358
1748517877505879800,11.8688798828125,-1.3128634691238403,-0.24571330845355988,-0.6485670804977417
1748517877524687400,11.887687255859374,-1.2432268857955933,0.10246963053941727,-0.5508314967155457
1748517877543495200,11.9064951171875,-1.1577082872390747,0.2942756712436676,-0.4775298535823822
1748517877562302700,11.925302734375,-1.1247224807739258,0.4237752854824066,-0.49829864501953125
1748517877581110500,11.944110595703124,-0.9866710305213928,0.7646280527114868,-0.5593833923339844
1748517877599918000,11.96291796875,-0.8754968047142029,0.8134958148002625,-0.6888830065727234
1748517877618726000,11.981725830078124,-0.8693883419036865,0.6241331696510315,-0.7756233215332031
1748517877646937300,12.009937255859375,-0.700794517993927,0.4909684956073761,-0.5972558856010437
1748517877665745200,12.0287451171875,-0.6006155610084534,0.4017847776412964,-0.4249969720840454
1748517877684552700,12.047552734375,-0.5602996349334717,0.31504446268081665,-0.17088451981544495
1748517877703360500,12.066360595703125,-0.5212054252624512,0.16844113171100616,0.09910997003316879
1748517877722168000,12.08516796875,-0.5224271416664124,0.09025268256664276,0.33001023530960083
1748517877740975600,12.1039755859375,-0.4906630516052246,0.0841442123055458,0.5022691488265991
1748517877759783400,12.122783447265626,-0.45889899134635925,-0.001374406274408102,0.515707790851593
1748517877778591000,12.141591064453126,-0.4271349310874939,-0.11743538826704025,0.5841227173805237
1748517877797398800,12.160398681640626,-0.34161633253097534,-0.3104631304740906,0.5291464328765869
1748517877816206300,12.179206298828126,-0.41736137866973877,-0.5181511640548706,0.4497362971305847
1748517877835014100,12.19801416015625,-0.4527905285358429,-0.6464291214942932,0.5010474920272827
1748517877853821700,12.21682177734375,-0.41736137866973877,-0.6525375843048096,0.5633538961410522
1748517877872629200,12.235629150390626,-0.4674508571624756,-0.6439857482910156,0.681858241558075
1748517877891437000,12.25443701171875,-0.5322006940841675,-0.6525375843048096,0.8186880350112915
1748517877910244600,12.27324462890625,-0.5822901725769043,-0.5450284481048584,0.9518527388572693
1748517877929052400,12.292052490234376,-0.5749599933624268,-0.43018919229507446,1.0520316362380981
1748517877947860000,12.31085986328125,-0.5737382769584656,-0.28725093603134155,1.148545503616333
1748517877966667500,12.32966748046875,-0.5639647245407104,-0.2933593988418579,1.3256912231445312
1748517877985475300,12.348475341796876,-0.5627430081367493,-0.36543938517570496,1.4222050905227661
1748517878004283000,12.367282958984376,-0.6042806506156921,-0.45706647634506226,1.5297142267227173
1748517878023090700,12.386090576171876,-0.6213843822479248,-0.45950984954833984,1.5724735260009766
1748517878041898200,12.404898193359376,-0.5774033665657043,-0.3752129375934601,1.6140111684799194
1748517878060705800,12.423705810546876,-0.4955498278141022,-0.3898732662200928,1.518718957901001
1748517878079513600,12.442513671875,-0.42957833409309387,-0.5596888065338135,1.3684505224227905
1748517878098321200,12.461321044921876,-0.3721587061882019,-0.8638907074928284,1.2902621030807495
1748517878117128700,12.480128662109376,-0.40636613965034485,-1.048366665840149,1.2255122661590576
1748517878135936500,12.4989365234375,-0.4527905285358429,-1.2487244606018066,1.2230689525604248
1748517878154744000,12.517744140625,-0.44546034932136536,-1.370893955230713,1.219403862953186
1748517878173551600,12.536551513671874,-0.441795289516449,-1.4063230752944946,1.307365894317627
1748517878192359400,12.555359375,-0.4124746024608612,-1.3256912231445312,1.375780701637268
1748517878211167000,12.5741669921875,-0.38071054220199585,-1.2438377141952515,1.3317997455596924
1748517878229974500,12.592974609375,-0.36360684037208557,-1.2865970134735107,1.3195828199386597
1748517878248782300,12.6117822265625,-0.32817769050598145,-1.2096302509307861,1.2572764158248901
1748517878267590000,12.63058984375,-0.34161633253097534,-1.0141592025756836,1.2377293109893799
1748517878286397400,12.6493974609375,-0.35383328795433044,-0.8504521250724792,1.2242906093597412
1748517878305205200,12.668205322265624,-0.36727190017700195,-0.8419002294540405,1.2475028038024902
1748517878333416700,12.696416748046875,-0.3220692276954651,-1.1094512939453125,1.297592282295227
1748517878352224300,12.715224365234375,-0.13392825424671173,-0.9762866497039795,1.1363285779953003
1748517878371031800,12.73403173828125,-0.0068720318377017975,-0.8003626465797424,0.9555178284645081
1748517878389839400,12.75283935546875,-0.08261708915233612,-0.5951179265975952,0.9384140968322754
1748517878408647200,12.771647216796875,-0.27686652541160583,-0.31534990668296814,1.1155598163604736
1748517878427454700,12.790454833984375,-0.3196258246898651,-0.014813045971095562,1.1461021900177002
1748517878446262300,12.80926220703125,-0.3501681983470917,-0.00259610079228878,1.023932695388794
1748517878465069800,12.82806982421875,-0.284196674823761,-0.04169032722711563,0.9139801859855652
1748517878483877600,12.846877685546875,-0.28541839122772217,-0.023364907130599022,0.8797727823257446
1748517878502685200,12.865685302734375,-0.32817769050598145,0.0988045409321785,0.9310839176177979
1748517878521492700,12.88449267578125,-0.23777230083942413,0.2832804024219513,0.8382351398468018
1748517878540300300,12.90330029296875,-0.06917845457792282,0.5263976454734802,0.645207405090332
1748517878559107800,12.92210791015625,0.06642963737249374,0.7731798887252808,0.42041563987731934
1748517878577915600,12.94091552734375,0.16172181069850922,0.9381086826324463,0.22372281551361084
1748517878596723200,12.95972314453125,0.17882554233074188,0.9588775038719177,0.19806721806526184
1748517878615530800,12.97853076171875,0.12629267573356628,0.7902836203575134,0.14675605297088623
1748517878634338300,12.99733837890625,0.2276933193206787,0.5129590034484863,0.125987246632576
1748517878653145900,13.016145751953125,0.2154763638973236,0.24907296895980835,-0.03649812191724777
1748517878671953700,13.03495361328125,0.1372879147529602,0.46164780855178833,-0.34070006012916565
1748517878690761200,13.05376123046875,0.17393875122070312,0.6485670804977417,-0.46897798776626587
1748517878709568800,13.07256884765625,0.2411319613456726,0.3871244490146637,-0.6241331696510315
1748517878737780200,13.1007802734375,0.15316994488239288,0.27350685000419617,-0.49952033162117004
1748517878756587800,13.119587890625,0.22647161781787872,0.5263976454734802,-0.36757734417915344
1748517878775395300,13.138395263671875,0.12995775043964386,1.019962191581726,-0.4274403750896454
1748517878794203000,13.157202880859375,0.11529742181301117,0.9576557874679565,-0.7243121266365051
1748517878813010400,13.176010498046875,0.3229855000972748,0.7646280527114868,-0.7707365155220032
1748517878831818200,13.194818359375,0.23868857324123383,0.5496098399162292,-0.6656708121299744
1748517878850625800,13.213625732421875,0.21791976690292358,0.5581616759300232,-0.7902836203575134
1748517878869433300,13.232433349609375,0.23624517023563385,0.556939959526062,-0.9344435930252075
1748517878888241000,13.251240966796875,0.27656111121177673,0.6730009913444519,-0.8159392476081848
1748517878907048400,13.27004833984375,0.21425467729568481,0.35169529914855957,-0.6449019908905029
1748517878925856000,13.28885595703125,0.2790044844150543,-0.15775130689144135,-0.5801522135734558
1748517878944663600,13.30766357421875,0.3107685446739197,-0.37887802720069885,-0.6412369012832642
1748517878963471000,13.32647119140625,0.2985515892505646,-0.016034740954637527,-0.7414158582687378
1748517878982279000,13.34527880859375,0.30343836545944214,0.43232715129852295,-0.9307785034179688
1748517879001086500,13.36408642578125,0.3755183517932892,0.6974348425865173,-0.8538117408752441
1748517879019894000,13.38289404296875,0.23746687173843384,0.7853968739509583,-0.8367080092430115
1748517879038701600,13.40170166015625,0.19348587095737457,0.7047650218009949,-0.8782456517219543
1748517879057509000,13.420509033203125,0.3633013963699341,0.5312843918800354,-0.8342646360397339
1748517879076316700,13.439316650390625,0.43415969610214233,0.429883748292923,-0.7902836203575134
1748517879095124200,13.458124267578125,0.3755183517932892,0.5630484819412231,-0.8428165316581726
1748517879113931800,13.476931884765625,0.2154763638973236,0.4543176591396332,-0.9894198179244995
1748517879132739300,13.4957392578125,0.1372879147529602,0.3846810758113861,-1.0114103555679321
1748517879151547000,13.514546875,-0.0032069480512291193,0.30404922366142273,-0.9759812355041504
1748517879170354400,13.5333544921875,0.05665608495473862,0.37979426980018616,-0.895349383354187
1748517879189162000,13.552161865234375,-0.038636088371276855,0.22219568490982056,-0.9320002198219299
1748517879207969500,13.570969482421875,-0.10949437320232391,0.22463907301425934,-1.02851402759552
1748517879226777000,13.589777099609375,-0.1107160672545433,0.08292251825332642,-1.0798252820968628
1748517879245584600,13.608584716796875,-0.07773031294345856,0.0975828468799591,-1.0236272811889648
1748517879264392200,13.62739208984375,-0.14736689627170563,0.05482354015111923,-1.1152544021606445
1748517879283199700,13.64619970703125,-0.14125843346118927,0.04871506989002228,-1.0822685956954956
1748517879302007300,13.66500732421875,-0.23288552463054657,-0.047798797488212585,-1.1922211647033691
1748517879320814800,13.68381494140625,-0.15714046359062195,-0.013591351918876171,-1.1091458797454834
1748517879339622400,13.702622314453125,-0.1388150453567505,-0.06734590977430344,-1.1800042390823364
1748517879358430000,13.721429931640625,-0.16080553829669952,0.04749337583780289,-1.1372449398040771
1748517879377237500,13.740237548828125,-0.20845162868499756,0.1623326539993286,-1.1763391494750977
1748517879396045000,13.759045166015625,-0.27197974920272827,-0.09422318637371063,-1.326607584953308
1748517879424256500,13.787256591796876,-0.358720064163208,0.0584886260330677,-1.2508624792099
1748517879443064000,13.80606396484375,-0.3746020793914795,0.18187977373600006,-1.2374237775802612
1748517879461871600,13.82487158203125,-0.35627666115760803,0.36879903078079224,-1.1800042390823364
1748517879480679200,13.84367919921875,-0.38071054220199585,0.32726141810417175,-1.1103676557540894
1748517879499486500,13.862486572265626,-0.4234698712825775,0.15866757929325104,-1.076160192489624
1748517879518294000,13.8812939453125,-0.4283566474914551,0.17454960942268372,-1.0810469388961792
1748517879537101600,13.9001015625,-0.3892624080181122,0.12079504877328873,-1.0957072973251343
1748517879555909000,13.9189091796875,-0.4002576768398285,0.22463907301425934,-1.13968825340271
1748517879574716700,13.937716552734376,-0.35383328795433044,0.36757734417915344,-0.9894198179244995
1748517879593524200,13.956524169921876,-0.2817533016204834,0.37002071738243103,-0.7817317843437195
1748517879612331800,13.975331787109376,-0.22555534541606903,0.323596328496933,-0.6400152444839478
1748517879631139300,13.994139404296876,-0.22433365881443024,0.1757712960243225,-0.5410579442977905
1748517879649947000,14.01294677734375,-0.27320143580436707,0.19776180386543274,-0.49829864501953125
1748517879668754400,14.03175439453125,-0.11560284346342087,0.50196373462677,-0.27839362621307373
1748517879687562000,14.05056201171875,0.034665580838918686,0.5716003179550171,-0.12201674282550812
1748517879706369500,14.06936962890625,-0.14248012006282806,0.32726141810417175,0.06245913356542587
1748517879725177000,14.088177001953126,-0.055739812552928925,0.22341738641262054,0.3226800560951233
1748517879743984400,14.106984375,0.11407572776079178,0.03894151374697685,0.3214583694934845
1748517879762792000,14.1257919921875,0.06642963737249374,-0.01847812905907631,0.2725905776023865
1748517879781599500,14.144599609375,-0.06551336497068405,-0.11499200016260147,0.16630317270755768
1748517879800407000,14.163406982421876,-0.04107947647571564,-0.2176143378019333,0.3568875193595886
1748517879819214600,14.182214599609376,0.13240113854408264,-0.17363333702087402,0.6305471062660217
1748517879838022100,14.201022216796876,0.05543438717722893,-0.29946786165237427,0.6293253898620605
1748517879856829700,14.21982958984375,0.010231691412627697,-0.5010474920272827,0.6134433746337891
1748517879875637000,14.238636962890626,-0.12659808993339539,-0.4631749391555786,0.733169436454773
1748517879894444500,14.257444580078126,-0.010537114925682545,-0.31534990668296814,1.0862390995025635
1748517879913252000,14.276252197265626,-0.054518118500709534,-0.27625566720962524,1.1570974588394165
1748517879932059600,14.2950595703125,-0.23655059933662415,-0.4277457892894745,1.2756017446517944
1748517879950867200,14.3138671875,-0.24021568894386292,-0.6403206586837769,1.3024790287017822
1748517879969674800,14.3326748046875,-0.284196674823761,-0.6317687630653381,1.352568507194519
1748517879988482000,14.35148193359375,-0.2939702570438385,-0.5975613594055176,1.4441956281661987
1748517880007289600,14.37028955078125,-0.3061871826648712,-0.5499152541160583,1.4674078226089478
1748517880026097200,14.38909716796875,-0.4234698712825775,-0.7209524512290955,1.5150538682937622
1748517880044904700,14.40790478515625,-0.4955498278141022,-1.1839747428894043,1.565143346786499
1748517880063712300,14.426712158203125,-0.48577627539634705,-0.964069664478302,1.6738742589950562
1748517880082519600,14.44551953125,-0.5566345453262329,-1.2536113262176514,1.5126105546951294
1748517880101327000,14.4643271484375,-0.5932853817939758,-1.1693143844604492,1.3415732383728027
1748517880120134700,14.483134765625,-0.4674508571624756,-1.5407094955444336,1.6494402885437012
1748517880138942200,14.501942138671875,-0.44546034932136536,-1.2646065950393677,1.5443745851516724
1748517880157749800,14.520749755859375,-0.28664007782936096,-1.0361496210098267,1.4674078226089478
1748517880176557000,14.53955712890625,-0.12659808993339539,-1.2792668342590332,1.2548329830169678
1748517880195364600,14.558364501953125,-0.13026317954063416,-1.2218471765518188,1.2584980726242065
1748517880214172200,14.577172119140625,-0.21211670339107513,-1.1839747428894043,1.2352858781814575
1748517880232979700,14.595979736328125,-0.27686652541160583,-0.8638907074928284,1.0691354274749756
1748517880251787000,14.614787109375,-0.2560977041721344,-0.7209524512290955,1.0825740098953247
1748517880270594600,14.633594482421875,-0.16935740411281586,-0.8015843033790588,1.1570974588394165
1748517880289402000,14.652402099609375,-0.2047865390777588,-0.8492304086685181,0.9933903813362122
1748517880308209700,14.671209716796875,-0.2927485406398773,-0.6574243903160095,0.7270609736442566
1748517880327017000,14.690016845703125,-0.27442312240600586,-0.49982577562332153,0.6708629727363586
1748517880345824500,14.708824462890625,-0.21822518110275269,-0.2554868757724762,0.8834378719329834
1748517880364632000,14.727632080078125,-0.2805316150188446,-0.5059342384338379,0.5890094637870789
1748517880383439600,14.746439697265625,-0.18035265803337097,-0.409420371055603,0.30068957805633545
1748517880402247000,14.765246826171875,-0.1766875684261322,-0.28847262263298035,0.06368082761764526
1748517880421054500,14.784054443359375,-0.13148486614227295,-0.07467607408761978,-0.0584886260330677
1748517880439862000,14.802862060546875,-0.11804623156785965,-0.15652960538864136,-0.217308908700943
1748517880458669300,14.82166943359375,-0.058183200657367706,-0.04291202127933502,-0.49585527181625366
1748517880477476900,14.840476806640625,0.011453386396169662,0.2954973578453064,-0.5972558856010437
1748517880505688000,14.86868798828125,-0.07895200699567795,0.36513394117355347,-0.48730340600013733
1748517880524495600,14.88749560546875,-0.12048961967229843,-0.06123743951320648,-0.4506525695323944
1748517880543303200,14.90630322265625,-0.0984991192817688,-0.40331190824508667,-0.47142136096954346
1748517880562110500,14.9251103515625,-0.1363716572523117,-0.41675055027008057,-0.4140017330646515
1748517880580918000,14.94391796875,-0.21944688260555267,-0.1772984117269516,-0.4946335554122925
1748517880599725600,14.9627255859375,-0.30740886926651,-0.07345438003540039,-0.6705575585365295
1748517880618532900,14.981532958984374,-0.5627430081367493,-0.11743538826704025,-0.8770239353179932
1748517880637340400,15.00034033203125,-0.5089884996414185,0.029167955741286278,-0.8354863524436951
1748517880656148000,15.01914794921875,-0.439351886510849,0.07681404054164886,-0.7035433053970337
1748517880674955300,15.037955322265624,-0.5725166201591492,-0.2982461750507355,-0.9429954290390015
1748517880693762800,15.0567626953125,-0.5517477989196777,0.06581879407167435,-1.28018319606781
1748517880712570400,15.0755703125,-0.46989426016807556,0.39078953862190247,-1.579498291015625
1748517880731377700,15.094377685546876,-0.2304421216249466,0.5801522135734558,-1.2471973896026611
1748517880750185200,15.113185302734376,-0.1498102843761444,0.7340856790542603,-0.8733588457107544
1748517880768992800,15.13199267578125,-0.10338589549064636,0.7401941418647766,-1.0639432668685913
1748517880787800000,15.150800048828126,0.0016798300202935934,0.46042612195014954,-1.335159420967102
1748517880806607600,15.169607666015626,0.04321744292974472,0.2307475507259369,-1.288735032081604
1748517880825415000,15.188414794921876,0.02489202655851841,0.4677563011646271,-1.210546612739563
1748517880844222500,15.207222412109376,0.0065666078589856625,0.5276193022727966,-1.1115893125534058
1748517880863029800,15.22602978515625,-0.13392825424671173,0.3064926266670227,-1.006523609161377
1748517880881837300,15.24483740234375,-0.25121092796325684,0.30038413405418396,-1.0248489379882812
1748517880900644900,15.263644775390626,-0.1620272397994995,0.2954973578453064,-0.8916842937469482
1748517880919452200,15.2824521484375,-0.17302247881889343,0.10369132459163666,-0.9515473246574402
1748517880938259700,15.301259765625,-0.2414373755455017,-0.17485502362251282,-1.0236272811889648
1748517880957067000,15.32006689453125,-0.3245126008987427,-0.3837648034095764,-1.2154333591461182
1748517880975874600,15.33887451171875,-0.3208475112915039,-0.4778352677822113,-1.2300937175750732
1748517880994682000,15.35768212890625,-0.6873558759689331,-0.7942541241645813,-1.5281871557235718
1748517881013489400,15.376489501953126,-0.7911999225616455,-0.9481876492500305,-1.5611728429794312
1748517881032297000,15.395296875,-0.6189410090446472,-0.6171084642410278,-1.3571498394012451
1748517881051104300,15.414104248046876,-0.6885775923728943,-0.9225320816040039,-1.5367389917373657
1748517881069911800,15.432911865234376,-0.8596147894859314,-1.260941505432129,-1.7945165634155273
1748517881088719400,15.45171923828125,-0.7044596076011658,-0.6537593007087708,-1.9570019245147705
1748517881107526700,15.470526611328125,-0.4527905285358429,-0.2921377122402191,-1.909355878829956
1748517881126334200,15.489334228515625,-0.5138752460479736,0.2307475507259369,-1.5367389917373657
1748517881145141500,15.5081416015625,-0.6348230242729187,0.40544986724853516,-1.366923451423645
1748517881163949000,15.526948974609375,-0.2927485406398773,0.7182036638259888,-1.233758807182312
1748517881182756400,15.54575634765625,0.0065666078589856625,1.326607584953308,-1.1641221046447754
1748517881201564000,15.56456396484375,-0.15836215019226074,1.588050127029419,-1.28018319606781
1748517881220371200,15.58337109375,-0.35505497455596924,1.3376027345657349,-1.4292298555374146
1748517881239178800,15.6021787109375,-0.35383328795433044,1.0651649236679077,-1.4280081987380981
1748517881257986300,15.620986328125,-0.4234698712825775,0.9833113551139832,-1.232537031173706
1748517881276793600,15.639793701171875,-0.5285356044769287,0.8025006055831909,-1.005301833152771
1748517881295601200,15.65860107421875,-0.7569924592971802,0.5520532131195068,-0.6705575585365295
1748517881314408400,15.677408447265625,-0.830294132232666,0.41888850927352905,-0.2307475507259369
1748517881333216000,15.696216064453125,-0.8693883419036865,0.30282753705978394,0.0844496339559555
1748517881352023300,15.715023193359375,-0.8486195802688599,0.28694549202919006,0.45950984954833984
1748517881370830800,15.733830810546875,-0.7215633392333984,0.08903098851442337,0.751494824886322
1748517881389638100,15.75263818359375,-0.7777612805366516,-0.22005772590637207,0.9152019023895264
1748517881408445700,15.77144580078125,-0.8730534315109253,-0.45828816294670105,1.000720500946045
1748517881427253000,15.7902529296875,-0.8009734749794006,-0.4424061179161072,1.1289983987808228
1748517881446060500,15.809060546875,-0.5554128885269165,-0.3067980408668518,1.3171393871307373
1748517881464867800,15.827867919921875,-0.6348230242729187,-0.575570821762085,1.2988139390945435
1748517881483675400,15.84667529296875,-0.7850914597511292,-0.5621321797370911,1.2792668342590332
1748517881502482700,15.865482666015625,-0.5297572612762451,-0.30068957805633545,1.4686294794082642
1748517881521290200,15.884290283203125,-0.2976353168487549,-0.23105297982692719,1.6250064373016357
1748517881540097500,15.90309765625,-0.3953709006309509,-0.18585027754306793,1.6421101093292236
1748517881558905000,15.921905029296875,-0.44423866271972656,-0.072232685983181,1.7667230367660522
1748517881577712400,15.94071240234375,-0.3990359604358673,-0.2982461750507355,1.936538577079773
1748517881596520000,15.95952001953125,-0.3489464819431305,-0.5303681492805481,2.2053112983703613
1748517881615327200,15.9783271484375,-0.21822518110275269,-0.6085565686225891,2.4606454372406006
1748517881634134800,15.997134765625,0.011453386396169662,-0.5242596864700317,2.4227728843688965
1748517881652942000,16.015942138671875,0.35108447074890137,-0.2970244884490967,2.030608892440796
1748517881671749600,16.03474951171875,0.448820024728775,-0.5596888065338135,1.6237847805023193
1748517881690557000,16.053556884765626,0.26312246918678284,-0.9103151559829712,1.4881765842437744
1748517881709364500,16.072364501953125,0.25212720036506653,-0.8480086922645569,1.6140111684799194
1748517881728171800,16.091171875,0.32787227630615234,-0.6378772258758545,1.5065020322799683
1748517881746979300,16.109979248046876,0.6395570635795593,-0.5841227173805237,1.3098092079162598
1748517881765786600,16.12878662109375,0.9352071285247803,-0.5340332388877869,1.1387720108032227
1748517881784594200,16.14759423828125,0.5954233407974243,-0.2530434727668762,0.9946120381355286
1748517881803401500,16.1664013671875,0.0725381150841713,-0.305576354265213,1.1827529668807983
1748517881822209000,16.185208984375,0.1238492801785469,-0.5804576277732849,1.2963706254959106
1748517881841016300,16.204016357421875,0.2582356929779053,-0.49493899941444397,1.2096302509307861
1748517881859823900,16.222823974609376,0.3901786804199219,-0.45950984954833984,0.7148439884185791
1748517881878631200,16.241631103515626,0.34131091833114624,-0.46073153614997864,0.36910444498062134
1748517881897438700,16.260438720703124,0.04199574887752533,-0.5645755529403687,0.668419599533081
1748517881916246000,16.27924609375,-0.0594048947095871,-0.5609105229377747,0.7771504521369934
1748517881935053600,16.298053466796876,-0.1119377613067627,-0.2664821147918701,0.492495596408844
1748517881953860900,16.31686083984375,-0.04718795046210289,0.26495498418807983,0.28602921962738037
1748517881972668400,16.33566845703125,0.0004581354442052543,0.4408790171146393,-0.18798823654651642
1748517881991475700,16.354475830078126,-0.21333840489387512,0.2942756712436676,-0.4494308829307556
1748517882010283300,16.373283203125,-0.4002576768398285,-0.07956285774707794,-0.3504736125469208
1748517882029090600,16.392090576171874,-0.2548760175704956,-0.1650814712047577,-0.31504446268081665
1748517882047898000,16.410898193359376,-0.06184828653931618,0.8379297256469727,-1.0419527292251587
1748517882066705400,16.429705322265626,-0.072843536734581,1.5513993501663208,-1.792073130607605
1748517882085513000,16.448512939453124,-0.5651864409446716,0.7047650218009949,-1.6369179487228394
1748517882104320300,16.4673203125,-0.4760027229785919,0.3981196880340576,-1.2386455535888672
1748517882123127800,16.4861279296875,-0.2426590770483017,0.45920443534851074,-0.7719582319259644
1748517882141935400,16.504935302734374,-0.43568679690361023,-0.011147962883114815,-1.0126320123672485
1748517882160742700,16.52374267578125,-0.548082709312439,-0.520594596862793,-1.2142115831375122
1748517882179550200,16.54255029296875,-0.43080002069473267,-0.9237537384033203,-1.2581926584243774
1748517882198357500,16.561357421875,-0.3232909142971039,-0.7502731680870056,-1.1726740598678589
1748517882217165000,16.5801650390625,-0.3232909142971039,-0.13942588865756989,-1.0834903717041016
1748517882235972400,16.598972412109376,-0.40758782625198364,-0.3752129375934601,-1.0272923707962036
1748517882254780000,16.61777978515625,-0.6287145614624023,-1.2303991317749023,-1.0077452659606934
1748517882273587200,16.636587158203124,-0.7545490860939026,-1.9609724283218384,-0.9955283403396606
1748517882292394800,16.655394775390626,-0.8388460278511047,-1.6262280941009521,-1.1030374765396118
1748517882311202300,16.674202392578124,-1.025765299797058,-0.4888305068016052,-1.2508624792099
1748517882330009600,16.693009521484374,-1.1662601232528687,0.03527642786502838,-1.2606359720230103
1748517882348817200,16.711817138671876,-1.3079767227172852,-0.06612421572208405,-1.0358442068099976
1748517882367624400,16.73062451171875,-1.3446274995803833,-0.15775130689144135,-0.9148964881896973
1748517882386432000,16.749431884765624,-1.154043197631836,-0.3190149664878845,-1.2924001216888428
1748517882405239300,16.7682392578125,-0.8779402375221252,-0.6537593007087708,-1.408461093902588
1748517882424046800,16.787046875,-0.5761816501617432,-0.48516544699668884,-1.2679661512374878
1748517882442854400,16.8058544921875,-0.5285356044769287,-0.7270609736442566,-1.4047960042953491
1748517882461661700,16.82466162109375,-0.8021951913833618,-0.9823951125144958,-1.5697247982025146
1748517882480469200,16.84346923828125,-0.9793408513069153,-0.650094211101532,-1.3815838098526
1748517882499276500,16.862276611328124,-1.0074398517608643,-0.5792359113693237,-1.3376027345657349
1748517882518084000,16.881083984375,-1.1002886295318604,-0.5267030596733093,-1.5465126037597656
1748517882536891600,16.8998916015625,-1.1381611824035645,-0.6623111367225647,-1.6955592632293701
1748517882555699000,16.918698974609374,-0.8559496998786926,0.042606595903635025,-1.5135267972946167
1748517882574506500,16.937506591796875,-0.5676298141479492,0.1769929975271225,-1.3925790786743164
1748517882593314000,16.95631396484375,-0.3953709006309509,0.7120952010154724,-1.219098448753357
1748517882612121300,16.975121337890624,-0.25976279377937317,1.2667444944381714,-1.0541696548461914
1748517882630929000,16.993928955078125,-0.07406523078680038,1.541625738143921,-0.9881981611251831
1748517882649736400,17.012736328125,-0.04352286830544472,1.232537031173706,-1.209324836730957
1748517882668543700,17.031543701171874,-0.014202198944985867,0.8134958148002625,-1.4817627668380737
1748517882687351300,17.050351318359375,-0.24876753985881805,0.16966283321380615,-1.7236582040786743
1748517882706158800,17.069158935546874,-0.44301697611808777,0.13423368334770203,-1.713884711265564
1748517882724966100,17.087966064453123,-0.4246915578842163,0.21975229680538177,-1.5037531852722168
1748517882743773700,17.106773681640625,-0.3049654960632324,0.4946335554122925,-1.2581926584243774
1748517882762581200,17.125581298828124,-0.10216420143842697,0.6277982592582703,-0.9478822350502014
1748517882781388500,17.144388427734373,-0.0594048947095871,0.6974348425865173,-0.7438592314720154
1748517882800196000,17.163196044921875,-0.08750387281179428,0.3333698809146881,-0.616802990436554
1748517882819003600,17.182003662109373,-0.06795676052570343,-0.04046862944960594,-0.5056288242340088
1748517882837811200,17.200811279296875,-0.23655059933662415,-0.5047125220298767,-0.3736858069896698
1748517882856618500,17.219618408203125,0.029778804630041122,-0.24937839806079865,-0.012064233422279358
1748517882875426000,17.238426025390623,0.31687700748443604,0.07437065243721008,0.37887802720069885
1748517882894233600,17.257233642578125,0.14583978056907654,-0.09422318637371063,0.567018985748291
1748517882913041200,17.276041259765623,-0.2548760175704956,-0.2652604281902313,0.7759287357330322
1748517882931848400,17.294848388671873,-0.004428642801940441,0.06948387622833252,1.2059651613235474
1748517882950656000,17.313656005859375,-0.34039464592933655,0.08658760040998459,1.1448805332183838
1748517882969463600,17.332463623046873,-0.543195903301239,-0.34222719073295593,1.1289983987808228
1748517882988271000,17.35127099609375,-0.45767730474472046,-0.5816792845726013,1.125333309173584
1748517883007078400,17.370078369140625,-0.4246915578842163,-0.5364766120910645,1.314695954322815
1748517883025886000,17.388885986328123,-0.3342861533164978,-0.5291464328765869,1.3464601039886475
1748517883044693500,17.407693603515625,-0.4124746024608612,-0.7979192137718201,1.4625210762023926
1748517883063501000,17.4265009765625,-0.6006155610084534,-1.4539692401885986,1.33912992477417
1748517883082308600,17.44530859375,-0.5786250829696655,-1.840024709701538,1.187639832496643
1748517883101116000,17.464115966796875,-0.5554128885269165,-1.8827840089797974,1.210852026939392
1748517883119923500,17.48292333984375,-0.6507050395011902,-1.6408884525299072,1.3928844928741455
1748517883138731000,17.50173095703125,-0.7569924592971802,-1.6433318853378296,1.55170476436615
1748517883157538600,17.52053857421875,-0.7960866689682007,-1.3366864919662476,1.519940733909607
1748517883176345900,17.539345947265623,-0.6336013078689575,-0.9469659924507141,1.496728539466858
1748517883195153400,17.5581533203125,-0.41980478167533875,-0.7502731680870056,1.4918416738510132
1748517883213961000,17.5769609375,-0.30007871985435486,-0.8333483934402466,1.6237847805023193
1748517883232768500,17.5957685546875,-0.28664007782936096,-1.0288194417953491,1.7655012607574463
1748517883251576000,17.614576171875,-0.31229567527770996,-0.7698202729225159,1.5773603916168213
1748517883270383600,17.633383544921877,-0.23288552463054657,-0.4815003573894501,1.330578088760376
1748517883289191200,17.652191162109375,-0.1889045089483261,-0.6464291214942932,1.2792668342590332
1748517883307998700,17.670998779296873,-0.2976353168487549,-1.0275977849960327,1.3672288656234741
1748517883326806000,17.689805908203127,-0.45523393154144287,-0.7466080784797668,1.32935631275177
1748517883345613600,17.708613525390625,-0.35138988494873047,-0.6940752267837524,1.1937482357025146
1748517883364421000,17.727421142578127,-0.32695600390434265,-0.6354338526725769,0.9274188280105591
1748517883383228700,17.746228759765625,-0.23532891273498535,-0.5548020005226135,0.8089144825935364
1748517883402036200,17.7650361328125,-0.2548760175704956,-0.4228590130805969,0.673306405544281
1748517883420843800,17.78384375,-0.5065450668334961,-0.49860408902168274,0.8773293495178223
1748517883439651300,17.8026513671875,-0.571294903755188,0.04871506989002228,0.9628480076789856
1748517883458459000,17.821458984375,-0.6299362182617188,0.030389651656150818,0.5486935377120972
1748517883477266400,17.840266357421875,-0.5236487984657288,-0.051463883370161057,0.27625566720962524
1748517883496074000,17.859073974609377,-0.30252209305763245,0.14400723576545715,0.26037365198135376
1748517883514881500,17.877881591796875,-0.4039227366447449,0.08903098851442337,0.11010521650314331
1748517883533689000,17.896689208984377,-0.6641436815261841,-0.150421142578125,-0.06826218217611313
1748517883552496600,17.91549658203125,-0.6580352187156677,-0.3898732662200928,-0.0584886260330677
1748517883571304200,17.93430419921875,-0.5737382769584656,-0.4631749391555786,0.051463883370161057
1748517883590111700,17.95311181640625,-0.5419742465019226,-0.2958027720451355,-0.2710634768009186
1748517883608919300,17.971919189453125,-0.44668206572532654,-0.06612421572208405,-0.6302416324615479
1748517883627726800,17.990726806640627,-0.2145601063966751,-0.2432699203491211,-0.8965710401535034
1748517883646534400,18.009534423828125,-0.1363716572523117,-0.38254308700561523,-1.35226309299469
1748517883665342000,18.028342041015627,-0.06673506647348404,-0.029473381116986275,-1.6369179487228394
1748517883684149500,18.0471494140625,-0.24998924136161804,0.23685602843761444,-1.431673288345337
1748517883702957000,18.06595703125,-0.4808894991874695,-0.02092151902616024,-1.051726222038269
1748517883721764600,18.0847646484375,-0.4821111857891083,-0.279920756816864,-0.9881981611251831
1748517883740572200,18.103572265625,-0.40636613965034485,0.16599774360656738,-0.8696937561035156
1748517883759379700,18.122379638671877,-0.48577627539634705,0.4286620616912842,-0.8086090683937073
1748517883778187300,18.141187255859375,-0.46012070775032043,0.07681404054164886,-0.9588775038719177
1748517883796994800,18.159994873046877,-0.3855973184108734,-0.34222719073295593,-0.8110524415969849
1748517883815802400,18.17880224609375,-0.441795289516449,-0.23960483074188232,-0.6974348425865173
1748517883834610000,18.19760986328125,-0.5615213513374329,0.07314895838499069,-0.6705575585365295
1748517883853417500,18.21641748046875,-0.6519267559051514,-0.07345438003540039,-0.7255338430404663
1748517883872225000,18.23522509765625,-0.5774033665657043,-0.22127941250801086,-0.7133168578147888
1748517883891032600,18.254032470703127,-0.5041016936302185,-0.05268557742238045,-0.7035433053970337
1748517883909840100,18.272840087890625,-0.5969504714012146,0.07559234648942947,-0.9063445925712585
1748517883928647700,18.291647705078127,-0.543195903301239,0.2038702666759491,-0.9014578461647034
1748517883947455200,18.310455322265625,-0.7960866689682007,-0.00015271181473508477,-0.9368869662284851
1748517883966262800,18.3292626953125,-0.807081937789917,0.0462716780602932,-1.005301833152771
1748517883985070600,18.348070556640625,-0.6384881138801575,0.17332790791988373,-1.0236272811889648
1748517884003878100,18.366878173828123,-0.3855973184108734,0.39201122522354126,-1.084712028503418
1748517884022685700,18.385685791015625,-0.17057909071445465,0.22097399830818176,-1.2826265096664429
1748517884041493200,18.4044931640625,-0.12293300777673721,-0.09910997003316879,-1.4414467811584473
1748517884060300800,18.42330078125,-0.2170034945011139,-0.2408265322446823,-1.501309871673584
1748517884079108400,18.4421083984375,-0.3452814221382141,0.03405473381280899,-1.3803620338439941
1748517884097916000,18.460916015625,-0.5358657836914062,-0.07834116369485855,-1.5233004093170166
1748517884116723700,18.4797236328125,-0.6629219651222229,-0.32512345910072327,-1.6564650535583496
1748517884135531300,18.49853125,-0.603058934211731,-0.38132140040397644,-1.6784555912017822
1748517884154338800,18.5173388671875,-0.44668206572532654,-0.02092151902616024,-1.7236582040786743
1748517884173146400,18.536146484375,-0.2304421216249466,0.4152234196662903,-1.713884711265564
1748517884191954000,18.554953857421875,-0.4124746024608612,0.13545538485050201,-1.7725260257720947
1748517884210761500,18.573761474609373,-0.41858309507369995,0.476308137178421,-1.384027123451233
1748517884229569300,18.5925693359375,-0.3758237659931183,0.4934118688106537,-1.131136417388916
1748517884248376800,18.611376953125,-0.36360684037208557,0.37735089659690857,-1.1421316862106323
1748517884267184400,18.630184326171875,-0.4124746024608612,0.26373329758644104,-1.2679661512374878
1748517884285992000,18.648991943359373,-0.3855973184108734,0.3101576864719391,-1.1567920446395874
1748517884304799500,18.667799560546875,-0.47233763337135315,0.631463348865509,-1.1824475526809692
1748517884323607300,18.686607177734373,-0.4955498278141022,0.5080721974372864,-1.1971079111099243
1748517884342414800,18.705414794921875,-0.441795289516449,0.31382277607917786,-0.8758022785186768
1748517884370626300,18.733626220703126,-0.14492350816726685,0.6021426916122437,-0.4091149568557739
1748517884389433900,18.752433837890624,-0.34405970573425293,0.3223746418952942,-0.14522893726825714
1748517884408241400,18.771241455078126,-0.38071054220199585,0.17210622131824493,0.21394924819469452
1748517884427049000,18.790049072265624,-0.2426590770483017,0.18432316184043884,0.5071559548377991
1748517884445856500,18.8088564453125,-0.3477247953414917,0.08780929446220398,0.5657972693443298
1748517884464664300,18.827664306640624,-0.45523393154144287,-0.07589777559041977,0.6830799579620361
1748517884483472000,18.846471923828126,-0.5163186192512512,-0.2163926362991333,0.8199097514152527
1748517884502279400,18.865279541015624,-0.5700731873512268,-0.2298312783241272,1.0544750690460205
1748517884521087000,18.8840869140625,-0.5407525300979614,-0.20906247198581696,1.2010784149169922
1748517884539894800,18.902894775390624,-0.5016583204269409,-0.2151709496974945,1.5236058235168457
1748517884558702300,18.921702392578126,-0.4149180054664612,-0.1760767251253128,1.847354769706726
1748517884577510000,18.940510009765624,-0.3623851239681244,-0.256708562374115,2.108797550201416
1748517884596317400,18.9593173828125,-0.3721587061882019,-0.3495573401451111,2.265174388885498
1748517884615125200,18.978125244140625,-0.3220692276954651,-0.3642176687717438,2.383678674697876
1748517884633932800,18.996932861328126,-0.24754585325717926,-0.44484952092170715,2.4459850788116455
1748517884652740400,19.015740234375,-0.17302247881889343,-0.5926745533943176,2.3592448234558105
1748517884671548000,19.0345478515625,-0.054518118500709534,-0.6513158679008484,2.2639527320861816
1748517884690355700,19.053355712890625,-0.06429167091846466,-0.5095993280410767,2.259065866470337
1748517884709163300,19.072163330078126,-0.02641914412379265,-0.409420371055603,2.222414970397949
1748517884727970800,19.090970703125,0.10308047384023666,-0.36543938517570496,2.0122835636138916
1748517884746778400,19.1097783203125,0.19959434866905212,-0.3849864900112152,1.9279866218566895
1748517884765586200,19.128586181640625,0.23991025984287262,-0.38132140040397644,1.8302510976791382
1748517884784393700,19.147393798828126,0.2435753494501114,-0.5425850749015808,1.7264070510864258
1748517884803201300,19.166201171875,0.22524993121623993,-0.5193728804588318,1.6079026460647583
1748517884822008800,19.1850087890625,0.32909396290779114,-0.3727695345878601,1.5162756443023682
1748517884840816600,19.203816650390625,0.3242071866989136,-0.1650814712047577,1.3550119400024414
1748517884859624200,19.222624267578126,0.25090551376342773,-0.3336753249168396,1.213295340538025
1748517884878431700,19.241431640625,0.164165198802948,-0.37887802720069885,1.1228899955749512
1748517884897239600,19.260239501953127,0.09208522737026215,-0.13331741094589233,1.103342890739441
1748517884925451000,19.288450927734374,0.08353336155414581,0.15378080308437347,0.8223531246185303
1748517884944258600,19.307258544921876,0.06642963737249374,0.0841442123055458,0.7527165412902832
1748517884963066000,19.326066162109374,0.03833066672086716,-0.10644013434648514,0.6415423154830933
1748517884981873700,19.344873779296876,-0.025197450071573257,-0.1772984117269516,0.386208176612854
1748517885000681500,19.363681396484374,-0.0594048947095871,-0.024586603045463562,0.22494450211524963
1748517885019489000,19.382489013671876,-0.02764083817601204,0.020616095513105392,-0.01817270554602146
1748517885038296600,19.401296630859374,0.06276455521583557,0.13301199674606323,-0.4005630910396576
1748517885057104400,19.4201044921875,0.004123218823224306,0.14889401197433472,-0.8159392476081848
1748517885075912000,19.438911865234374,-0.020310672000050545,0.1122431829571724,-1.1018157005310059
1748517885094719500,19.457719482421876,-0.001985253533348441,0.14645062386989594,-1.0651649236679077
1748517885113527300,19.47652734375,-0.08750387281179428,0.06459710001945496,-0.8318212628364563
1748517885132334800,19.4953349609375,-0.10949437320232391,-0.072232685983181,-0.6791094541549683
1748517885151142400,19.514142333984374,-0.0068720318377017975,-0.05635065957903862,-0.6119162440299988
1748517885169950000,19.532949951171876,-0.014202198944985867,-0.045355409383773804,-0.7072083950042725
1748517885188757800,19.5517578125,0.021226942539215088,0.014507622458040714,-0.9368869662284851
1748517885207565300,19.5705654296875,0.07620319724082947,0.2576248347759247,-0.7951704263687134
1748517885226372900,19.589372802734374,-0.05207473039627075,0.25029465556144714,-0.6302416324615479
1748517885245180700,19.6081806640625,-0.15347537398338318,0.004734066314995289,-0.7304205894470215
1748517885263988200,19.62698828125,-0.1107160672545433,-0.08933641016483307,-0.895349383354187
1748517885282795800,19.645795654296876,-0.07528692483901978,0.2551814317703247,-0.9991934299468994
1748517885301603600,19.664603515625,-0.08750387281179428,0.6302416324615479,-1.0395092964172363
1748517885320411100,19.6834111328125,-0.1253764033317566,0.5630484819412231,-1.0773818492889404
1748517885339218700,19.70221875,-0.005650337319821119,0.40667155385017395,-1.0089669227600098
1748517885358026200,19.721026123046876,0.08719844371080399,0.40789327025413513,-0.8513683676719666
1748517885376834000,19.739833984375,-0.055739812552928925,0.26128992438316345,-0.9869764447212219
1748517885395641600,19.7586416015625,-0.1375933438539505,0.1916533261537552,-1.264301061630249
1748517885414449200,19.77744921875,-0.19623468816280365,0.2796153426170349,-1.2471973896026611
1748517885433257000,19.796257080078124,-0.2670929729938507,0.44332239031791687,-1.1580137014389038
1748517885452064500,19.815064453125,-0.28908345103263855,0.3358132839202881,-1.335159420967102
1748517885470872000,19.8338720703125,-0.023975754156708717,0.950325608253479,-1.233758807182312
1748517885489679600,19.8526796875,0.0725381150841713,0.6901046633720398,-1.421899676322937
1748517885508487400,19.8714873046875,-0.23532891273498535,-0.012369656935334206,-1.9472283124923706
1748517885527295200,19.890295166015626,-0.38071054220199585,0.349251925945282,-1.9447849988937378
1748517885546102800,19.909102783203124,-0.39048412442207336,0.5630484819412231,-1.941119909286499
1748517885564910600,19.92791064453125,-0.4503471553325653,0.346808522939682,-2.146364450454712
1748517885583718100,19.94671826171875,-0.3184041380882263,0.36513394117355347,-2.0816147327423096
1748517885602525700,19.965525634765626,-0.19989976286888123,0.6644490957260132,-1.8079551458358765
1748517885621333200,19.984333251953124,-0.2817533016204834,0.6449019908905029,-1.7407619953155518
1748517885640141000,20.00314111328125,-0.4821111857891083,0.30282753705978394,-1.9105775356292725
1748517885658948600,20.021948486328125,-0.5138752460479736,0.4103366434574127,-1.5611728429794312
1748517885677756200,20.040756103515626,-0.43080002069473267,0.45676103234291077,-1.1836693286895752
1748517885696564000,20.05956396484375,-0.23899398744106293,0.22586077451705933,-0.8061656951904297
1748517885715371500,20.07837158203125,-0.11438114941120148,0.06826218217611313,-0.4274403750896454
1748517885734179000,20.097178955078125,-0.08628217875957489,-0.04046862944960594,-0.042606595903635025
1748517885752986600,20.115986572265626,-0.019088976085186005,-0.14186927676200867,0.22494450211524963
1748517885771794400,20.13479443359375,0.050547610968351364,-0.14309096336364746,0.49616068601608276
1748517885790602000,20.15360205078125,0.2655658423900604,0.09269607067108154,0.862669050693512
1748517885809409500,20.172409423828125,0.3865135908126831,0.15378080308437347,1.0960127115249634
1748517885828217000,20.191217041015626,0.24846212565898895,-0.07834116369485855,1.2963706254959106
1748517885847025000,20.21002490234375,0.18004722893238068,-0.072232685983181,1.6958646774291992
1748517885865832400,20.22883251953125,0.2545706033706665,0.2038702666759491,2.001288414001465
1748517885884640000,20.247639892578125,0.1629435122013092,0.29794076085090637,2.1857643127441406
1748517885903447600,20.266447509765626,-0.005650337319821119,0.241742804646492,2.3128204345703125
1748517885922255400,20.28525537109375,0.0004581354442052543,0.08047912269830704,2.3800137042999268
1748517885941063000,20.30406298828125,-0.02886253222823143,-0.013591351918876171,2.4020042419433594
1748517885959870500,20.322870361328125,-0.10827267915010452,-0.13209572434425354,2.615800619125366
1748517885978678300,20.34167822265625,0.0590994730591774,-0.2041756957769394,2.6634466648101807
1748517885997485800,20.36048583984375,0.21303297579288483,-0.18585027754306793,2.5669329166412354
1748517886016293400,20.37929345703125,0.2301367074251175,-0.22616620361804962,2.3335893154144287
1748517886035101000,20.398100830078125,0.23624517023563385,-0.23349636793136597,2.241962194442749
1748517886053908700,20.41690869140625,0.14583978056907654,-0.21028417348861694,2.0806984901428223
1748517886072716300,20.43571630859375,0.1776038408279419,-0.016034740954637527,1.9304300546646118
1748517886091523800,20.45452392578125,0.40850409865379333,-0.07467607408761978,1.824142575263977
1748517886110331400,20.473331298828125,0.5074613690376282,-0.3092414140701294,1.6054593324661255
1748517886129139200,20.49213916015625,0.44637662172317505,-0.3177932798862457,1.446639060974121
1748517886147946800,20.51094677734375,0.5013529062271118,-0.21394924819469452,1.291483759880066
1748517886166754300,20.52975439453125,0.5709894895553589,-0.06123743951320648,1.2548329830169678
1748517886185561900,20.548561767578125,0.5819846987724304,0.111021488904953,1.0728005170822144
1748517886204369700,20.56736962890625,0.5551074743270874,0.1122431829571724,0.7148439884185791
1748517886223177200,20.58617724609375,0.5453338623046875,0.11957334727048874,0.4362976551055908
1748517886241984800,20.60498486328125,0.5624375939369202,0.10002623498439789,0.39231663942337036
1748517886260792300,20.623792236328125,0.4695888161659241,-0.1638597846031189,0.11865708231925964
1748517886279599900,20.642599853515627,0.2166980654001236,-0.26403874158859253,-0.07559234648942947
1748517886298407700,20.66140771484375,0.32542887330055237,-0.19684553146362305,-0.12690351903438568
1748517886317215200,20.68021533203125,0.39140036702156067,-0.10277505218982697,-0.2527380585670471
1748517886336022800,20.699022705078125,0.3755183517932892,-0.049020491540431976,-0.47264307737350464
1748517886354830300,20.717830322265623,0.48669254779815674,0.17943638563156128,-0.5398362874984741
1748517886373638000,20.736637939453125,0.5392253994941711,0.3749074935913086,-0.5740436911582947
1748517886392445700,20.75544580078125,0.4549284875392914,0.4017847776412964,-0.8367080092430115
1748517886411253200,20.774253173828125,0.43171629309654236,0.19776180386543274,-1.1751173734664917
1748517886430060800,20.793060791015623,0.4366030693054199,0.3052709102630615,-1.3510414361953735
1748517886448868400,20.811868408203125,0.38040512800216675,0.6534538269042969,-1.2398672103881836
1748517886467676000,20.830676025390623,0.2313583940267563,0.44332239031791687,-1.1677871942520142
1748517886486483700,20.849483642578125,0.26312246918678284,0.0584886260330677,-1.0028585195541382
1748517886505291300,20.868291259765623,0.16050012409687042,-0.17485502362251282,-0.8733588457107544
1748517886524098800,20.887098876953125,0.07986827939748764,-0.04413371533155441,-1.1103676557540894
1748517886542906400,20.90590625,0.11651911586523056,0.3077143132686615,-1.3974658250808716
1748517886561714000,20.9247138671875,-0.01175880990922451,0.39201122522354126,-1.5220786333084106
1748517886580521500,20.943521484375,-0.17180079221725464,0.22341738641262054,-1.5538426637649536
1748517886599329300,20.962329345703125,-0.08139539510011673,0.2283041626214981,-1.541625738143921
1748517886618136800,20.98113671875,-0.07528692483901978,0.4005630910396576,-1.3852488994598389
1748517886636944400,20.9999443359375,-0.2279987335205078,0.35658207535743713,-1.476875901222229
1748517886655752000,21.018751953125,-0.2585411071777344,0.11835165321826935,-1.9069124460220337
1748517886674559500,21.0375595703125,-0.3978142738342285,0.2551814317703247,-1.9948744773864746
1748517886693367000,21.056366943359375,-0.3367295563220978,0.40789327025413513,-1.7297667264938354
1748517886712174600,21.075174560546873,-0.21944688260555267,0.14522893726825714,-1.9948744773864746
1748517886730982400,21.093982421875,-0.1620272397994995,0.2808370292186737,-2.1744635105133057
1748517886749790000,21.1127900390625,0.03588727489113808,0.49585527181625366,-2.277238607406616
1748517886768597500,21.131597412109375,0.05543438717722893,0.48608171939849854,-2.476374864578247
1748517886787405000,21.150405029296873,-0.02886253222823143,0.38223767280578613,-2.2845687866210938
1748517886806212600,21.169212646484375,-0.2560977041721344,0.3602471649646759,-2.1426994800567627
1748517886825020200,21.188020263671874,-0.3978142738342285,0.20142687857151031,-2.137812614440918
1748517886843827700,21.20682763671875,-0.31596073508262634,0.26006820797920227,-2.03885555267334
1748517886862635500,21.225635498046874,-0.23166382312774658,0.41888850927352905,-1.8348324298858643
1748517886881443000,21.244443115234375,-0.27808821201324463,0.5410579442977905,-1.6735687255859375
1748517886900250600,21.263250732421874,-0.2927485406398773,0.4091149568557739,-1.090820550918579
1748517886919058200,21.28205810546875,-0.23410721123218536,0.24540787935256958,-0.5312843918800354
1748517886937865700,21.30086572265625,-0.1241547018289566,0.12690351903438568,-0.18798823654651642
1748517886956673300,21.31967333984375,0.005344913341104984,0.007177455350756645,0.22372281551361084
1748517886975480800,21.338480712890625,0.05787777900695801,-0.07467607408761978,0.6610894203186035
1748517886994288400,21.357288330078124,0.03588727489113808,-0.08078455179929733,1.1766445636749268
1748517887013096000,21.376095947265625,0.04077405482530594,-0.023364907130599022,1.4649643898010254
1748517887031903500,21.394903564453124,0.09941539168357849,0.09147437661886215,1.5639216899871826
1748517887050711300,21.413711181640625,0.06032116711139679,-0.11377029865980148,1.4588559865951538
1748517887069518800,21.432518798828124,-0.2047865390777588,-0.5743491649627686,1.4124315977096558
1748517887088326400,21.451326416015625,-0.36971530318260193,-0.7038487792015076,1.8546849489212036
1748517887107134000,21.470134033203124,-0.28541839122772217,-0.5108210444450378,2.3531363010406494
1748517887125941500,21.48894140625,-0.1644706279039383,-0.35322242975234985,2.641456365585327
1748517887144749000,21.5077490234375,-0.3489464819431305,-0.5108210444450378,2.7184231281280518
1748517887163556600,21.526556640625,-0.4515688419342041,-0.7001836895942688,2.7000975608825684
1748517887182364200,21.5453642578125,-0.28541839122772217,-0.834570050239563,2.739191770553589
1748517887201171700,21.564171630859374,-0.1241547018289566,-0.8480086922645569,2.768512487411499
1748517887219979300,21.582979248046875,0.04321744292974472,-0.4656183123588562,2.751408815383911
1748517887238786800,21.601786865234374,0.1360662281513214,-0.2298312783241272,2.345806121826172
1748517887257594400,21.620594482421875,0.2655658423900604,-0.046577103435993195,2.32015061378479
1748517887276402000,21.63940185546875,0.4769189953804016,0.14767232537269592,2.024500608444214
1748517887295209700,21.658209716796875,0.22647161781787872,-0.2579302489757538,1.181531310081482
1748517887314017300,21.677017333984374,0.011453386396169662,-0.5499152541160583,1.5162756443023682
1748517887332824800,21.695824951171875,0.08964183181524277,-1.1118947267532349,2.2871649265289307
1748517887351632400,21.71463232421875,0.23868857324123383,-0.8333483934402466,1.9402035474777222
1748517887370440000,21.73343994140625,0.1238492801785469,0.23196925222873688,0.9994988441467285
1748517887389247500,21.75224755859375,0.3975088596343994,-0.02092151902616024,1.4796247482299805
1748517887408055000,21.771054931640624,0.23991025984287262,-0.7001836895942688,0.940857470035553
1748517887426862600,21.789862548828125,-0.19256959855556488,0.14034216105937958,0.9139801859855652
1748517887445670100,21.808670166015624,-0.21333840489387512,-0.5914528369903564,0.880994439125061
1748517887464477700,21.827477783203125,-0.004428642801940441,-0.5425850749015808,0.4277457892894745
1748517887483285200,21.84628515625,0.13240113854408264,-0.2725905776023865,0.08200624585151672
1748517887502092800,21.8650927734375,0.2154763638973236,-0.4155288338661194,-0.3052709102630615
1748517887520900400,21.883900390625,0.19348587095737457,-0.5560237169265747,-0.6998782753944397
1748517887539708000,21.9027080078125,0.10674555599689484,-0.35444411635398865,-0.7133168578147888
1748517887558515500,21.921515380859375,0.011453386396169662,0.009620844386518002,-0.6925480961799622
1748517887577323000,21.940322998046874,0.06642963737249374,0.39078953862190247,-0.9051229357719421
1748517887596130600,21.959130615234375,-0.0068720318377017975,0.40789327025413513,-1.288735032081604
1748517887614938000,21.977938232421874,-0.039857782423496246,-0.01847812905907631,-1.7322101593017578
1748517887633745700,21.99674560546875,0.20692451298236847,-0.00015271181473508477,-1.8922520875930786
1748517887652553200,22.01555322265625,0.3352024257183075,0.6510104537010193,-1.6295877695083618
1748517887671360800,22.03436083984375,0.22036315500736237,0.6387935280799866,-1.4585505723953247
1748517887690168300,22.053168212890625,0.10552386194467545,0.0988045409321785,-1.3608149290084839
1748517887708975900,22.071975830078124,-0.08628217875957489,-0.621995210647583,-1.2911783456802368
1748517887727783400,22.090783447265625,-0.18523943424224854,-0.7001836895942688,-1.3510414361953735
1748517887746590700,22.1095908203125,0.007788302376866341,0.01695101149380207,-1.3363810777664185
1748517887765398300,22.128398193359374,0.08231166750192642,0.7695148587226868,-1.256971001625061
1748517887793609700,22.156609619140625,0.23258009552955627,1.1494618654251099,-1.6002670526504517
1748517887812417300,22.175417236328126,0.40728241205215454,0.9222266674041748,-1.539182424545288
1748517887831224800,22.194224853515625,0.35108447074890137,0.742637574672699,-1.7871863842010498
1748517887850032400,22.213032470703126,0.24601873755455017,0.48608171939849854,-2.3884127140045166
1748517887868840000,22.23183984375,0.25090551376342773,0.39323291182518005,-2.465379476547241
1748517887887647500,22.2506474609375,0.1495048701763153,0.44576579332351685,-2.1500296592712402
1748517887906454800,22.269454833984376,-0.3086305856704712,0.44454410672187805,-2.3273279666900635
1748517887925262300,22.288262451171875,-0.39048412442207336,0.38223767280578613,-2.5496764183044434
1748517887944070000,22.30706982421875,-0.39170581102371216,-0.1247655525803566,-2.6742892265319824
1748517887962877400,22.32587744140625,-0.4014793634414673,-0.149199441075325,-2.4262852668762207
1748517887981685000,22.34468505859375,-0.34039464592933655,0.22219568490982056,-1.9154642820358276
1748517888000492500,22.363492431640626,-0.2658712565898895,0.25029465556144714,-1.4170129299163818
1748517888019300000,22.382300048828125,-0.3110739588737488,0.03405473381280899,-1.3095037937164307
1748517888038107600,22.401107666015626,-0.41858309507369995,-0.08200624585151672,-1.2850699424743652
1748517888056915200,22.419915283203125,-0.462564080953598,0.1623326539993286,-0.9649859666824341
1748517888075722500,22.438722412109374,-0.5089884996414185,0.2295258641242981,-0.7524111270904541
1748517888094530000,22.457530029296876,-0.45645561814308167,0.05726693198084831,-0.2588465213775635
1748517888113337600,22.476337646484374,-0.29030516743659973,0.2307475507259369,0.2677038013935089
1748517888132145200,22.495145263671876,-0.03497100621461868,0.44698747992515564,0.4534013867378235
1748517888150952700,22.51395263671875,-0.08628217875957489,0.48363831639289856,0.6427640318870544
1748517888169760300,22.53276025390625,-0.04963133856654167,0.4359922409057617,0.9017632603645325
1748517888188567800,22.55156787109375,-0.06551336497068405,0.21853061020374298,1.158319115638733
1748517888207375400,22.570375244140624,-0.2585411071777344,0.18798823654651642,1.5614782571792603
1748517888226183000,22.589182861328126,-0.22555534541606903,0.23929941654205322,1.9634158611297607
1748517888244990200,22.607990234375,-0.1375933438539505,0.3089359998703003,2.2871649265289307
1748517888263797800,22.6267978515625,-0.22433365881443024,0.1782146841287613,2.6536731719970703
1748517888282605300,22.645605224609376,-0.3489464819431305,-0.09544488787651062,2.8222670555114746
1748517888301412900,22.664412841796874,-0.25976279377937317,-0.27625566720962524,2.832040548324585
1748517888320220400,22.683220458984376,-0.17913095653057098,-0.3239017724990845,2.7440786361694336
1748517888339028000,22.702028076171874,-0.17913095653057098,-0.4619532525539398,2.766069173812866
1748517888357835500,22.72083544921875,-0.10582929104566574,-0.3605526089668274,2.976200580596924
1748517888376642800,22.739642822265626,-0.01175880990922451,-0.3642176687717438,2.7819511890411377
1748517888395450400,22.758450439453124,-0.015423892997205257,-0.1247655525803566,2.5877017974853516
1748517888414258000,22.7772578125,0.09941539168357849,-0.34222719073295593,2.698875904083252
1748517888433065500,22.7960654296875,-0.012980503961443901,-0.43141087889671326,2.417886257171631
1748517888451873000,22.814873046875,0.005344913341104984,-0.20906247198581696,2.2932732105255127
1748517888470680600,22.8336806640625,0.19348587095737457,-0.011147962883114815,2.022057056427002
1748517888489488000,22.85248779296875,0.23991025984287262,-0.2933593988418579,1.6885344982147217
1748517888508295400,22.87129541015625,0.2289150059223175,-0.14675605297088623,1.5871338844299316
1748517888527103000,22.89010302734375,0.3975088596343994,0.1647760421037674,1.5126105546951294
1748517888545910500,22.90891064453125,0.3718532621860504,-0.19318044185638428,0.7502731680870056
1748517888564718000,22.927718017578126,0.28633466362953186,-0.30068957805633545,0.2689255177974701
1748517888583525600,22.946525634765624,0.31565532088279724,-0.11499200016260147,0.2591519355773926
1748517888602333000,22.9653330078125,0.3718532621860504,0.08292251825332642,0.072232685983181
1748517888621140500,22.984140380859376,0.2545706033706665,0.21364383399486542,-0.3211529552936554
1748517888639948000,23.002947998046874,0.27289602160453796,-0.00015271181473508477,-0.5520532131195068
1748517888658755600,23.021755615234376,0.2790044844150543,-0.17241163551807404,-0.5862606763839722
1748517888677563100,23.040563232421874,0.20936790108680725,0.060932014137506485,-0.6058077812194824
1748517888696370400,23.059370361328124,0.14706148207187653,0.13179029524326324,-0.6742226481437683
1748517888715178000,23.078177978515626,0.26312246918678284,0.08658760040998459,-0.8159392476081848
1748517888733985500,23.096985595703124,0.25945737957954407,0.26495498418807983,-1.1128109693527222
1748517888752793000,23.11579296875,0.164165198802948,0.11957334727048874,-1.195886254310608
1748517888771600600,23.1346005859375,0.12629267573356628,-0.22738789021968842,-1.0810469388961792
1748517888790408000,23.153407958984374,0.24724042415618896,-0.06245913356542587,-1.0309574604034424
1748517888809215500,23.172215576171876,0.270452618598938,0.5520532131195068,-1.195886254310608
1748517888828023000,23.19102294921875,0.18126893043518066,0.7096518278121948,-1.5831633806228638
1748517888846830600,23.20983056640625,0.2924431264400482,0.32726141810417175,-1.7346534729003906
1748517888865638000,23.228637939453126,0.38040512800216675,0.14889401197433472,-1.6002670526504517
1748517888884445400,23.247445556640624,0.12629267573356628,0.6571189165115356,-1.5917152166366577
1748517888903253000,23.2662529296875,0.23502348363399506,0.7682931423187256,-1.760309100151062
1748517888922060500,23.285060546875,0.33886751532554626,0.18554484844207764,-1.9594452381134033
1748517888940868000,23.3038681640625,0.32909396290779114,0.17332790791988373,-2.0645110607147217
1748517888959675400,23.32267529296875,0.2032594233751297,0.28938889503479004,-2.2123360633850098
1748517888978483000,23.34148291015625,0.0725381150841713,0.15988926589488983,-2.4519410133361816
1748517888997290500,23.36029052734375,-0.04107947647571564,-0.03802524134516716,-2.5997660160064697
1748517889016098000,23.37909814453125,-0.1375933438539505,-0.04169032722711563,-2.6168696880340576
1748517889034905300,23.3979052734375,-0.1498102843761444,0.1904316395521164,-2.6767327785491943
1748517889053713000,23.416712890625,0.03833066672086716,0.21120044589042664,-2.6913931369781494
1748517889072520400,23.4355205078125,0.050547610968351364,0.2441861927509308,-2.6767327785491943
1748517889091327700,23.45432763671875,0.04321744292974472,0.31260108947753906,-2.5179123878479004
1748517889110135300,23.47313525390625,-0.072843536734581,0.3309265077114105,-2.3554270267486572
1748517889128942800,23.49194287109375,-0.21822518110275269,0.47019967436790466,-2.207449197769165
1748517889147750400,23.51075048828125,-0.10705098509788513,0.9063445925712585,-1.4109044075012207
1748517889166557700,23.5295576171875,-0.014202198944985867,0.7927270531654358,-0.8403730988502502
1748517889185365200,23.548365234375,-0.13026317954063416,0.42133188247680664,-0.2026485800743103
1748517889204172800,23.5671728515625,-0.10460758954286575,0.3968980014324188,0.4680617153644562
1748517889222980400,23.58598046875,0.010231691412627697,0.2038702666759491,0.8993198871612549
1748517889241787600,23.60478759765625,0.005344913341104984,0.19531841576099396,1.377002477645874
1748517889260595200,23.62359521484375,-0.016645587980747223,0.1916533261537552,1.8143690824508667
1748517889279402500,23.642402587890626,0.0456608310341835,0.10246963053941727,2.186985969543457
1748517889298210000,23.6612099609375,-0.14125843346118927,-0.0331384651362896,2.273726224899292
1748517889317017600,23.680017578125,-0.23288552463054657,-0.12232216447591782,2.415442705154419
1748517889335825200,23.6988251953125,-0.16691401600837708,-0.1113269105553627,2.4227728843688965
1748517889354632400,23.717632568359374,-0.19745637476444244,-0.17485502362251282,2.6634466648101807
1748517889373440000,23.73643994140625,-0.14003673195838928,-0.15408621728420258,2.724531412124634
1748517889392247600,23.75524755859375,-0.1375933438539505,-0.3715478479862213,2.7587389945983887
1748517889411054800,23.774054931640624,-0.27320143580436707,-0.48516544699668884,3.0238466262817383
