time,seconds_elapsed,z,y,x
1750064021795096600,0.1290966796875,0.012314796447753906,0.011458873748779297,0.0004055798053741455
1750064021811088000,0.145087890625,0.04648447036743164,0.011096000671386719,0.019120946526527405
1750064021827079200,0.1610791015625,0.08999919891357422,-0.014312744140625,0.03033033013343811
1750064021843039700,0.177039794921875,0.1113438606262207,-0.05181741714477539,0.03397788107395172
1750064021859031000,0.193031005859375,0.12230730056762695,-0.08727836608886719,0.06245376169681549
1750064021875022000,0.20902197265625,0.12628698348999023,0.04518747329711914,-0.015338212251663208
1750064021891013400,0.225013427734375,0.17655563354492188,0.08481073379516602,-0.007536381483078003
1750064021922995700,0.25699560546875,0.1445012092590332,-0.0002579689025878906,-0.0850120559334755
1750064021938926000,0.272926025390625,0.08362436294555664,0.032941341400146484,-0.10788162052631378
1750064021954886700,0.28888671875,0.14795207977294922,0.10333061218261719,-0.06759331375360489
1750064021970847500,0.304847412109375,0.1228485107421875,0.11398983001708984,0.11421360075473785
1750064021986808000,0.32080810546875,0.08935165405273438,0.08837080001831055,0.1687929630279541
1750064022002829800,0.336829833984375,-0.0018138885498046875,0.07982587814331055,0.027697652578353882
1750064022018790400,0.352790283203125,0.02622842788696289,0.06626272201538086,-0.04830832779407501
1750064022034751200,0.368751220703125,0.4217104911804199,0.06847381591796875,0.04473455250263214
1750064022058707500,0.39270751953125,0.6098227500915527,0.0751652717590332,0.0594148188829422
1750064022074668300,0.408668212890625,0.28019189834594727,0.12635087966918945,-0.011747419834136963
1750064022090659300,0.424659423828125,-0.033057212829589844,0.2011699676513672,-0.0786094218492508
1750064022106589400,0.44058935546875,-0.1809401512145996,0.22810840606689453,-0.14826157689094543
1750064022122580700,0.456580810546875,-0.11578989028930664,0.24031496047973633,-0.1621893346309662
1750064022146598100,0.48059814453125,-0.07105636596679688,0.16710329055786133,-0.08402041345834732
1750064022170554400,0.504554443359375,-0.07747220993041992,0.10931921005249023,0.07507635653018951
1750064022194510600,0.528510498046875,0.21218252182006836,0.15449190139770508,0.10081242024898529
1750064022234458000,0.5684580078125,0.3018665313720703,0.11186027526855469,0.135184645652771
1750064022250419000,0.5844189453125,0.012184619903564453,0.16596078872680664,0.18191847205162048
1750064022266379500,0.600379638671875,-0.21260881423950195,0.20525217056274414,0.14359736442565918
1750064022282401300,0.6164013671875,-0.20792007446289062,0.18088579177856445,0.1191805899143219
1750064022298331400,0.632331298828125,-0.19106721878051758,0.12350130081176758,0.09233926236629486
1750064022314322700,0.64832275390625,-0.18838834762573242,0.10457181930541992,0.0701865404844284
1750064022330283500,0.664283447265625,-0.27909183502197266,0.13599586486816406,0.028369903564453125
1750064022346274600,0.680274658203125,-0.3218564987182617,0.16514062881469727,0.0013202875852584839
1750064022370169900,0.704169921875,-0.2068800926208496,0.09391260147094727,-0.09998743236064911
1750064022386130700,0.720130615234375,-0.13157415390014648,0.0729060173034668,-0.13874204456806183
1750064022402121700,0.736121826171875,-0.10703039169311523,0.06917381286621094,-0.14243373274803162
1750064022418082600,0.75208251953125,-0.20374679565429688,0.0812997817993164,-0.1667400598526001
1750064022434043100,0.768043212890625,-0.17675065994262695,0.08723020553588867,-0.15098704397678375
1750064022450004000,0.78400390625,-0.05468559265136719,0.04878568649291992,-0.10947255045175552
1750064022465995000,0.7999951171875,0.19761133193969727,0.019364356994628906,-0.04096907377243042
1750064022481925400,0.81592529296875,0.3845028877258301,-0.0356450080871582,-0.08851225674152374
1750064022497916400,0.83191650390625,0.30471086502075195,-0.05438566207885742,-0.11149118840694427
1750064022513877200,0.847877197265625,-0.006702899932861328,-0.038474082946777344,-0.12810024619102478
1750064022529837800,0.863837890625,-0.26967477798461914,-0.0014858245849609375,-0.2189207673072815
1750064022545829000,0.8798291015625,-0.2810373306274414,-0.028743267059326172,-0.20626944303512573
1750064022561820200,0.895820068359375,-0.06253862380981445,-0.06721210479736328,-0.12118980288505554
1750064022577811500,0.9118115234375,0.04584455490112305,-0.0981144905090332,-0.15833638608455658
1750064022593802800,0.927802734375,0.031688690185546875,-0.10462284088134766,-0.23798342049121857
1750064022609793800,0.943793701171875,-0.07362794876098633,-0.06084299087524414,-0.3109489679336548
1750064022625754600,0.959754638671875,-0.1313176155090332,0.007038593292236328,-0.21824608743190765
1750064022641776400,0.9757763671875,-0.11953926086425781,0.11090326309204102,-0.1825205534696579
1750064022657767400,0.991767333984375,-0.005974769592285156,0.12024307250976562,-0.2077779471874237
1750064022681754400,1.01575439453125,0.13611936569213867,0.08531332015991211,-0.11488821357488632
1750064022697684500,1.0316845703125,0.26017045974731445,0.11403226852416992,0.0027506202459335327
1750064022713675800,1.04767578125,0.37705469131469727,0.11696720123291016,0.14588701725006104
1750064022729636400,1.06363623046875,0.5455465316772461,0.09493017196655273,0.3000088632106781
1750064022745597200,1.07959716796875,0.7993974685668945,0.07826852798461914,0.39084678888320923
1750064022761557800,1.095557861328125,0.8657307624816895,0.09514713287353516,0.2692931890487671
1750064022777579500,1.11157958984375,0.7246356010437012,0.06171417236328125,0.036153778433799744
1750064022793601300,1.127601318359375,0.3803844451904297,0.03856801986694336,-0.10773571580648422
1750064022809561900,1.143561767578125,0.022562026977539062,0.022968769073486328,-0.17104783654212952
1750064022825522700,1.159522705078125,-0.1247715950012207,0.039244651794433594,-0.11984115839004517
1750064022841544400,1.17554443359375,-0.08591842651367188,0.01393890380859375,-0.0711710974574089
1750064022857474600,1.191474609375,0.05057048797607422,0.0028619766235351562,-0.047782622277736664
1750064022873465900,1.2074658203125,0.055362701416015625,-0.04646587371826172,-0.027054965496063232
1750064022889457000,1.223456787109375,-0.06108427047729492,-0.03960704803466797,0.06579554080963135
1750064022905448200,1.2394482421875,-0.29370641708374023,-0.041581153869628906,-0.00009067356586456299
1750064022921439500,1.255439453125,-0.42198848724365234,-0.0714869499206543,-0.0764753445982933
1750064022937430500,1.271430419921875,-0.39472007751464844,-0.10735130310058594,-0.1337357610464096
1750064022953391400,1.287391357421875,-0.29116201400756836,-0.1133279800415039,-0.19312486052513123
1750064022969352000,1.30335205078125,-0.18987178802490234,-0.10660076141357422,-0.17022284865379333
1750064022985343200,1.31934326171875,0.03274250030517578,-0.1486525535583496,-0.14412739872932434
1750064023001334500,1.33533447265625,0.19251298904418945,-0.15631532669067383,-0.13084252178668976
1750064023017325600,1.35132568359375,0.21047115325927734,-0.12772607803344727,-0.1536119133234024
1750064023033286400,1.367286376953125,0.15199995040893555,-0.10692644119262695,-0.12990012764930725
1750064023049277400,1.38327734375,-0.08031988143920898,-0.05839824676513672,-0.08852685987949371
1750064023065207800,1.399207763671875,0.03228759765625,0.02885580062866211,0.045560918748378754
1750064023081168400,1.41516845703125,0.18513965606689453,0.045523643493652344,0.10614245384931564
1750064023097190100,1.431190185546875,0.24425745010375977,0.02198171615600586,0.10588351637125015
1750064023113120300,1.447120361328125,0.17371082305908203,0.022435665130615234,0.05804828554391861
1750064023129111600,1.463111572265625,0.11407995223999023,0.0812983512878418,0.124270960688591
1750064023145072000,1.479072021484375,0.07881546020507812,0.09909820556640625,0.1653396338224411
1750064023161063400,1.4950634765625,0.19200849533081055,0.08338069915771484,0.08733568340539932
1750064023177054700,1.5110546875,0.24300432205200195,0.11556243896484375,0.03776106238365173
1750064023201041400,1.53504150390625,0.26752614974975586,0.09119558334350586,-0.044845324009656906
1750064023224936700,1.558936767578125,0.22649145126342773,0.04540443420410156,-0.10789119452238083
1750064023240897500,1.5748974609375,0.32678842544555664,0.0006341934204101562,-0.034823767840862274
1750064023256919000,1.5909189453125,0.40056610107421875,0.02075338363647461,-0.04789499565958977
1750064023272879900,1.6068798828125,0.6046276092529297,0.030028343200683594,-0.019019976258277893
1750064023296836000,1.630836181640625,0.6451301574707031,-0.02269601821899414,0.0659504383802414
1750064023312797000,1.646796875,0.5257997512817383,-0.035210609436035156,-0.023810353130102158
1750064023328788000,1.6627880859375,0.27684783935546875,-0.005616664886474609,-0.056194983422756195
1750064023352744400,1.686744384765625,0.09456110000610352,0.21959972381591797,-0.1641339659690857
1750064023368705000,1.702705078125,-0.14844131469726562,0.05426502227783203,0.04150785505771637
1750064023384665900,1.718665771484375,-0.025383949279785156,-0.1890864372253418,-0.01918722316622734
1750064023400687400,1.734687255859375,0.10976600646972656,-0.12480783462524414,-0.08598814159631729
1750064023416617700,1.75061767578125,0.10267257690429688,-0.0377197265625,-0.07939853519201279
1750064023432578300,1.766578369140625,-0.031307220458984375,0.035015106201171875,0.017767637968063354
1750064023448539100,1.7825390625,0.0017695426940917969,0.03185272216796875,0.1749154031276703
1750064023464499700,1.798499755859375,0.14997386932373047,-0.08822059631347656,0.3447315990924835
1750064023480521500,1.814521484375,0.16364145278930664,-0.12390947341918945,0.25617653131484985
1750064023496451600,1.83045166015625,0.18123626708984375,-0.0921335220336914,-0.04386705532670021
1750064023512412400,1.846412353515625,0.17441606521606445,-0.08910417556762695,-0.19960619509220123
1750064023528373000,1.862373046875,0.162200927734375,-0.10267019271850586,-0.17580491304397583
1750064023544364300,1.8783642578125,0.12999439239501953,-0.07507801055908203,-0.16886427998542786
1750064023560324900,1.894324951171875,-0.22856569290161133,0.1533827781677246,0.015223434194922447
1750064023576316200,1.910316162109375,-0.4349513053894043,0.188690185546875,0.06629873812198639
1750064023600302800,1.934302734375,-0.3151392936706543,-0.011340618133544922,-0.13831394910812378
1750064023616233200,1.950233154296875,0.06643819808959961,-0.017883777618408203,-0.22631430625915527
1750064023632224300,1.966224365234375,0.2345294952392578,-0.025695323944091797,-0.10061850398778915
1750064023648185000,1.98218505859375,0.2348465919494629,-0.026667118072509766,0.09545972943305969
1750064023664145700,1.998145751953125,0.20728349685668945,0.0449371337890625,0.14484013617038727
1750064023680137000,2.014136962890625,0.24424123764038086,0.015522480010986328,0.05260214954614639
1750064023696097500,2.03009765625,0.15479469299316406,0.011819839477539062,0.08300036191940308
1750064023712058400,2.046058349609375,-0.04724740982055664,0.03809404373168945,0.08620382845401764
1750064023728049400,2.06204931640625,-0.25583600997924805,0.09108400344848633,-0.05136457085609436
1750064023744040700,2.078040771484375,-0.4311532974243164,0.05583524703979492,-0.11889270693063736
1750064023760032000,2.094031982421875,-0.36576080322265625,0.011198997497558594,-0.14004866778850555
1750064023776023000,2.11002294921875,-0.1528940200805664,-0.028654098510742188,-0.14529812335968018
1750064023792044800,2.126044921875,0.02565622329711914,-0.06690359115600586,0.0030887597240507603
1750064023808036000,2.1420361328125,0.09018087387084961,-0.0440058708190918,-0.012282120063900948
1750064023823996700,2.15799658203125,0.004168033599853516,-0.05797910690307617,-0.12699979543685913
1750064023840018400,2.174018310546875,-0.005153656005859375,-0.07982873916625977,-0.3135216236114502
1750064023856009700,2.190009765625,0.019769668579101562,-0.04752063751220703,-0.35629209876060486
1750064023871970300,2.20597021484375,0.049681663513183594,-0.05617046356201172,-0.30084356665611267
1750064023895957200,2.229957275390625,-0.041934967041015625,-0.12059926986694336,-0.13654562830924988
1750064023911917800,2.245917724609375,-0.027471542358398438,-0.06325244903564453,-0.12992432713508606
1750064023927878700,2.261878662109375,0.11638832092285156,-0.08443880081176758,-0.13844889402389526
1750064023943870000,2.277869873046875,0.2850804328918457,-0.10853338241577148,-0.11963380128145218
1750064023959861000,2.293861083984375,0.2947402000427246,-0.0697183609008789,-0.1524602472782135
1750064023975852300,2.309852294921875,0.07295656204223633,-0.04266929626464844,-0.12706124782562256
1750064023991843600,2.325843505859375,-0.28078603744506836,-0.023650169372558594,-0.17835494875907898
1750064024007804200,2.34180419921875,-0.4435243606567383,0.017578601837158203,-0.14721089601516724
1750064024023764700,2.3577646484375,-0.2517995834350586,0.09870767593383789,0.137132927775383
1750064024039786500,2.373786376953125,-0.1486663818359375,0.06671905517578125,0.3848353922367096
1750064024063712300,2.397712158203125,-0.29260683059692383,-0.05464363098144531,-0.08843114227056503
1750064024079673000,2.413673095703125,-0.6363658905029297,-0.11864566802978516,-0.14628353714942932
1750064024095664400,2.429664306640625,-1.0400848388671875,-0.28064632415771484,-0.3270934224128723
1750064024111655400,2.445655517578125,-0.7594523429870605,-0.21206903457641602,-0.6569949388504028
1750064024127646700,2.461646728515625,0.0014848709106445312,-0.41549110412597656,-0.421671986579895
1750064024143607300,2.477607177734375,0.5638523101806641,-0.6319913864135742,0.03463542461395264
1750064024159598600,2.4935986328125,0.9339070320129395,-0.47974443435668945,-0.110714852809906
1750064024175559200,2.50955908203125,0.9848918914794922,-0.16776466369628906,-0.23766380548477173
1750064024191550500,2.525550537109375,0.7303099632263184,-0.13245677947998047,-0.06391751766204834
1750064024207450000,2.5414501953125,0.25795793533325195,-0.20943307876586914,-0.025709807872772217
1750064024223441400,2.55744140625,-0.17261934280395508,-0.19186687469482422,-0.08798778057098389
1750064024239402000,2.573402099609375,-0.18121051788330078,-0.0801248550415039,-0.16541677713394165
1750064024255393300,2.589393310546875,-0.021354198455810547,-0.0647587776184082,-0.13344401121139526
1750064024271415000,2.6054150390625,-0.07236671447753906,-0.09724855422973633,-0.05627703666687012
1750064024287406300,2.62140625,0.06317901611328125,0.03964376449584961,0.10930591821670532
1750064024303397400,2.6373974609375,-0.1989760398864746,0.10755205154418945,0.35854098200798035
1750064024319388700,2.653388671875,-0.2873520851135254,0.11855077743530273,0.02294468879699707
1750064024335380000,2.6693798828125,-0.26558589935302734,0.13633155822753906,-0.22841209173202515
1750064024351371000,2.68537109375,-0.1799159049987793,0.019748687744140625,-0.09891659021377563
1750064024367362300,2.7013623046875,-0.2562289237976074,-0.10804367065429688,-0.06981372833251953
1750064024383384000,2.717384033203125,-0.27242088317871094,-0.12704849243164062,-0.1895323395729065
1750064024399375000,2.733375,-0.23346996307373047,-0.1768660545349121,-0.18930047750473022
1750064024415366400,2.749366455078125,-0.1000356674194336,-0.17383956909179688,-0.05481070280075073
1750064024431357700,2.765357666015625,0.004868984222412109,-0.14509105682373047,0.1245306134223938
1750064024447348700,2.7813486328125,-0.05294084548950195,-0.08213996887207031,0.2132607400417328
1750064024463340000,2.797340087890625,-0.2738056182861328,-0.0682377815246582,0.20711025595664978
1750064024479270100,2.813270263671875,-0.4806671142578125,-0.05158233642578125,0.18979790806770325
1750064024495261400,2.829261474609375,-0.6895031929016113,-0.05103158950805664,0.13034284114837646
1750064024511222000,2.845221923828125,-1.0077543258666992,0.005894184112548828,0.16534888744354248
1750064024527152400,2.86115234375,-1.868868350982666,-0.04291200637817383,0.5960636734962463
1750064024543052000,2.877052001953125,-2.918023109436035,0.01337575912475586,1.2496929168701172
1750064024559012600,2.8930126953125,-2.2607083320617676,-0.780606746673584,1.2163422107696533
1750064024575004000,2.90900390625,-3.4763808250427246,0.4331021308898926,-0.5114184617996216
1750064024590964500,2.924964599609375,-2.25685453414917,0.2708611488342285,-2.5771169662475586
1750064024606894800,2.940894775390625,-1.3673686981201172,-0.6885766983032227,-1.0649237632751465
1750064024622886000,2.956885986328125,-0.7691988945007324,-0.623537540435791,-0.39461851119995117
1750064024638877200,2.972877197265625,-0.1317291259765625,-0.600703239440918,0.1931161880493164
1750064024654868500,2.988868408203125,0.2867469787597656,-0.32782721519470215,0.6549190282821655
1750064024670829000,3.0048291015625,1.3733768463134766,0.4683723449707031,0.009729146957397461
1750064024686850800,3.020850830078125,3.4353418350219727,-0.5091309547424316,-0.46479082107543945
1750064024702811400,3.036811279296875,2.5017223358154297,-0.9175662994384766,-0.17740631103515625
1750064024718772200,3.052772216796875,2.7766714096069336,-1.4356635808944702,-0.9928779602050781
1750064024734732800,3.06873291015625,3.0597314834594727,-0.9123830795288086,-0.5608439445495605
1750064024750724000,3.08472412109375,2.7435779571533203,-0.41824841499328613,-0.18849754333496094
1750064024766684700,3.1006845703125,0.8926925659179688,-0.27019476890563965,0.6058194637298584
1750064024782676000,3.116676025390625,-1.8466806411743164,-0.2118520736694336,1.6751376390457153
1750064024798697700,3.13269775390625,-3.1822290420532227,-0.39971017837524414,1.8718760013580322
1750064024814627800,3.1486279296875,-2.5923147201538086,0.038084983825683594,1.2628782987594604
1750064024830588700,3.164588623046875,-2.2315101623535156,0.42417383193969727,0.11886906623840332
1750064024846579700,3.180579833984375,-1.9928584098815918,-0.7025251388549805,-0.7546367645263672
1750064024862540500,3.19654052734375,-0.9319067001342773,-1.024282455444336,-0.15361809730529785
1750064024878562300,3.212562255859375,0.5218286514282227,-1.052290916442871,-1.5692334175109863
1750064024910514200,3.24451416015625,0.6806755065917969,-1.0428361892700195,-0.4704442024230957
1750064024926474800,3.260474853515625,0.01884746551513672,-1.1806838512420654,-0.09560918807983398
1750064024942374400,3.27637451171875,-1.1636013984680176,-0.870713472366333,-1.098912239074707
1750064024958335200,3.292335205078125,-2.564943790435791,-1.1663215160369873,-0.6147241592407227
1750064024974326300,3.308326171875,0.23461151123046875,-0.15461492538452148,0.04492652416229248
1750064024990287000,3.324287109375,1.481100082397461,0.4091153144836426,0.6638215780258179
1750064025006278400,3.3402783203125,1.4166231155395508,-0.3255729675292969,1.7444770336151123
1750064025022208500,3.35620849609375,-0.2775754928588867,-0.8989303112030029,2.4346818923950195
1750064025038230300,3.372230224609375,-1.9377093315124512,-1.1277356147766113,1.163266897201538
1750064025054221300,3.38822119140625,-2.090003490447998,-0.7319302558898926,0.3745804727077484
1750064025070182100,3.40418212890625,-1.5358099937438965,-0.23120832443237305,-2.1067802906036377
1750064025094199600,3.428199462890625,-1.2262320518493652,-0.06546306610107422,-1.7957592010498047
1750064025110129700,3.444129638671875,0.6429891586303711,-1.11710524559021,-0.8486624956130981
1750064025126059800,3.460059814453125,-2.3108439445495605,-0.7927358150482178,3.2336220741271973
1750064025142051000,3.476051025390625,-3.879859447479248,-0.5848546028137207,2.4097976684570312
1750064025158072800,3.49207275390625,-3.3705430030822754,-0.8467473983764648,0.6996250152587891
1750064025174003000,3.5080029296875,-3.670032501220703,-2.0273139476776123,0.4191395342350006
1750064025189994000,3.523993896484375,-2.948091983795166,-2.235152244567871,0.8336360454559326
1750064025205985300,3.5399853515625,-2.957101821899414,-2.6244921684265137,1.0049809217453003
1750064025221946000,3.555946044921875,-4.021263599395752,-2.9664008617401123,-0.6007897853851318
1750064025237967600,3.571967529296875,-5.153643608093262,-3.6287331581115723,-2.484076499938965
1750064025253959000,3.587958984375,-5.497400283813477,-4.406983375549316,-3.0088536739349365
1750064025269919700,3.603919677734375,-6.3027544021606445,-4.614415645599365,-2.9673736095428467
1750064025285880300,3.61988037109375,-6.424676418304443,-4.885631084442139,-2.351512908935547
1750064025301871600,3.63587158203125,-5.538510322570801,-5.253030776977539,-3.2355384826660156
1750064025317862700,3.651862548828125,-6.825046062469482,-5.5401225090026855,-3.7708494663238525
1750064025333823500,3.667823486328125,-8.554028511047363,-7.8974175453186035,-0.37245750427246094
1750064025349753600,3.683753662109375,-8.658353805541992,-5.301662921905518,-2.3109288215637207
1750064025365745000,3.699744873046875,-8.142830848693848,-6.16222620010376,-1.0720553398132324
1750064025381675000,3.715675048828125,-6.811945915222168,-7.752909183502197,0.40398597717285156
1750064025397696800,3.73169677734375,-2.3126742839813232,-6.6182732582092285,-0.0631718635559082
1750064025413688000,3.74768798828125,0.04136514663696289,-6.278754711151123,-1.6730570793151855
1750064025429679000,3.76367919921875,-2.079072952270508,-6.607484340667725,-0.8857831954956055
1750064025453604900,3.78760498046875,-3.116757869720459,-6.436726093292236,1.3322267532348633
1750064025469565700,3.803565673828125,-0.10605454444885254,-6.049441337585449,3.923403739929199
1750064025485556700,3.819556640625,3.6547658443450928,-6.0556321144104,5.565155982971191
1750064025501517600,3.835517578125,5.193360328674316,-5.898797035217285,6.539005279541016
1750064025517478100,3.85147802734375,4.287060737609863,-5.242284297943115,6.6698455810546875
1750064025533469400,3.867469482421875,1.977072834968567,-4.587801456451416,6.020068168640137
1750064025549460700,3.883460693359375,-0.009409040212631226,-4.188066005706787,6.851906776428223
1750064025565421300,3.89942138671875,-0.7818050384521484,-3.876959800720215,9.726277351379395
1750064025581412600,3.91541259765625,-1.0349053144454956,-3.3648338317871094,11.321687698364258
1750064025597434400,3.931434326171875,-0.008011460304260254,-2.875330924987793,11.682554244995117
1750064025621421000,3.955421142578125,2.4303696155548096,-2.624478816986084,11.46737003326416
1750064025637382000,3.9713818359375,4.319660663604736,-2.1860432624816895,10.344877243041992
1750064025661376300,3.995376220703125,5.554934978485107,-0.5254249572753906,7.113729953765869
1750064025677398000,4.01139794921875,2.9813084602355957,-0.43193817138671875,6.7677001953125
1750064025701293300,4.035293212890625,0.7213847637176514,-0.09970474243164062,5.5188212394714355
1750064025717315000,4.051315185546875,0.6018330454826355,-0.06163787841796875,3.6317200660705566
1750064025733245200,4.0672451171875,1.525804877281189,-0.4199190139770508,2.865661144256592
1750064025749205800,4.083205810546875,2.209707260131836,-0.6069765090942383,2.382840633392334
1750064025765197000,4.099197021484375,2.205989122390747,-0.5272846221923828,2.1193270683288574
1750064025781188400,4.115188232421875,1.959976077079773,-0.631378173828125,2.0552358627319336
1750064025797118500,4.131118408203125,0.969124436378479,-0.7656173706054688,1.916144847869873
1750064025813079000,4.1470791015625,0.698959469795227,-1.1736211776733398,0.8872232437133789
1750064025837035500,4.171035400390625,-0.4267079830169678,-0.8168840408325195,-0.6525130271911621
1750064025852996000,4.18699609375,-1.5510767698287964,-1.1840887069702148,-0.6340813636779785
1750064025868987400,4.2029873046875,-1.9966506958007812,-1.3457622528076172,-0.4937934875488281
1750064025884917500,4.21891748046875,-1.2659237384796143,-1.0339937210083008,-0.5501754283905029
1750064025900969700,4.2349697265625,-1.1970155239105225,-1.1623430252075195,-0.36417150497436523
1750064025917022000,4.25102197265625,-1.2731006145477295,-1.2103557586669922,-0.5843427181243896
1750064025933013200,4.26701318359375,-0.9884641170501709,-0.6250181198120117,0.09026432037353516
1750064025956847400,4.290847412109375,-0.7585241794586182,-0.11382484436035156,2.481412887573242
1750064025972869000,4.306869140625,-1.3107378482818604,0.717008113861084,3.0433664321899414
1750064025988768800,4.322768798828125,-2.671963691711426,1.3262982368469238,3.4665846824645996
1750064026004699000,4.338698974609375,-1.5538101196289062,1.8992671966552734,4.873502731323242
1750064026020690200,4.354690185546875,-1.854902982711792,2.3539600372314453,5.985796928405762
1750064026036651000,4.370651123046875,-3.8318841457366943,2.193091869354248,4.881802558898926
1750064026052581000,4.3865810546875,-3.9688291549682617,1.2195825576782227,2.600501537322998
1750064026068541700,4.402541748046875,-2.962588310241699,0.36021900177001953,1.540116310119629
1750064026084502500,4.41850244140625,0.6479711532592773,0.5301508903503418,1.9417524337768555
1750064026100493600,4.43449365234375,0.3893601894378662,0.5933389663696289,0.5386528968811035
1750064026116515300,4.450515380859375,-1.134040355682373,-0.37699079513549805,1.1011857986450195
1750064026132445700,4.46644580078125,1.8928601741790771,-0.5700497627258301,-0.8598246574401855
1750064026148436700,4.482436767578125,1.6937370300292969,-0.35785865783691406,-4.3301544189453125
1750064026164458500,4.49845849609375,2.1093180179595947,-0.811591625213623,-6.652156352996826
1750064026180449800,4.51444970703125,0.4706594944000244,0.3312418460845947,-3.2615761756896973
1750064026196410400,4.530410400390625,2.2604751586914062,2.846980333328247,-0.3936309814453125
1750064026212340500,4.546340576171875,3.4641075134277344,2.4725334644317627,-4.379365921020508
1750064026228331800,4.562331787109375,3.04907488822937,0.8671157360076904,-6.373073577880859
1750064026244323000,4.578322998046875,1.1432582139968872,1.8437420129776,-1.0955867767333984
1750064026268279300,4.602279296875,-1.8597924709320068,1.0359375476837158,-0.6461496353149414
1750064026284240100,4.618240234375,0.8480576872825623,0.5959337949752808,-2.9829182624816895
1750064026308196400,4.6421962890625,-0.7275895476341248,0.5305123329162598,-0.842219352722168
1750064026324157000,4.658156982421875,3.3281145095825195,4.138236999511719,-1.3654451370239258
1750064026340117800,4.67411767578125,2.3218584060668945,0.9744731187820435,-4.129688739776611
1750064026364043500,4.69804345703125,-0.1681879758834839,-1.4517085552215576,-1.5368824005126953
1750064026379973600,4.7139736328125,0.6453490257263184,-1.815711259841919,1.6835098266601562
1750064026395903700,4.72990380859375,2.0373072624206543,-3.5166561603546143,2.285841941833496
1750064026411895000,4.74589501953125,0.4424304962158203,-3.590456247329712,-2.4039244651794434
1750064026427855600,4.761855712890625,-0.07455751299858093,-1.690778136253357,-6.755205154418945
1750064026443816400,4.77781640625,0.046229273080825806,-5.310606002807617,-5.022593975067139
1750064026459807700,4.793807861328125,-0.21319791674613953,-3.9255917072296143,-2.100405216217041
1750064026475798800,4.809798828125,-0.7586123943328857,-4.612302780151367,0.8098134994506836
1750064026491759600,4.825759521484375,-1.076585292816162,-3.876774787902832,2.4102210998535156
1750064026507720200,4.84172021484375,-0.030230306088924408,-3.2223129272460938,4.920281410217285
1750064026523681000,4.857680908203125,-0.2520020008087158,-4.163338661193848,6.114851951599121
1750064026539641600,4.8736416015625,1.1066612005233765,-3.9940569400787354,2.339432716369629
1750064026555602400,4.8896025390625,2.471675395965576,-0.3308145999908447,-1.9969172477722168
1750064026587554300,4.92155419921875,-0.9710030555725098,-0.09552001953125,-4.276900768280029
1750064026603545300,4.93754541015625,-0.6166009902954102,-3.7436683177948,-5.202240467071533
1750064026619536600,4.95353662109375,2.0647854804992676,-3.8968164920806885,-8.644476890563965
1750064026635528000,4.96952783203125,5.1237287521362305,-4.425490379333496,-5.7528228759765625
1750064026659514600,4.9935146484375,4.689813613891602,-5.249237537384033,3.2696914672851562
1750064026699462100,5.033462158203125,1.4596161842346191,0.9040050506591797,7.113465309143066
1750064026715453400,5.049453369140625,3.0324134826660156,1.1671638488769531,8.8754301071167
1750064026731444700,5.06544482421875,-0.8829699754714966,1.766545057296753,3.871279716491699
1750064026747435800,5.081435791015625,-1.6094996929168701,2.7338154315948486,1.7944254875183105
1750064026763396600,5.097396728515625,-0.764613151550293,3.8681108951568604,3.5618715286254883
1750064026779357200,5.113357177734375,0.5897334814071655,4.849745750427246,8.19019603729248
1750064026795287300,5.129287353515625,-0.23576223850250244,5.7255024909973145,7.125341415405273
1750064026819274200,5.153274169921875,-2.1325130462646484,4.8506574630737305,5.509964942932129
1750064026835204400,5.169204345703125,1.4968963861465454,5.87844705581665,3.626981735229492
1750064026851256600,5.185256591796875,-1.3267892599105835,4.821616172790527,0.19701766967773438
1750064026867217400,5.201217529296875,-3.6002564430236816,5.021026134490967,-4.29171085357666
1750064026883178000,5.217177978515625,-3.5418245792388916,3.4662694931030273,-7.234993934631348
1750064026899169300,5.233169189453125,-2.9031991958618164,-1.8883156776428223,-9.749277114868164
1750064026923186400,5.2571865234375,-3.185155153274536,-7.4955949783325195,-5.0717010498046875
1750064026939177700,5.273177734375,4.347210884094238,-7.753263473510742,2.98232364654541
1750064026955169000,5.2891689453125,2.0479068756103516,0.6558732986450195,0.7956037521362305
1750064026971160000,5.30516015625,-0.9184229969978333,-1.194033145904541,-3.545534133911133
1750064026987121000,5.321120849609375,-0.06245434284210205,6.202660083770752,-4.9468255043029785
1750064027003081500,5.33708154296875,-4.712984561920166,7.567002773284912,-9.829301834106445
1750064027019103200,5.353103271484375,-2.4436049461364746,1.272859811782837,1.3667430877685547
1750064027035064000,5.36906396484375,-1.0864602327346802,3.2787718772888184,2.2062644958496094
1750064027051055000,5.38505517578125,-0.14564651250839233,1.9600012302398682,4.692778587341309
1750064027067016000,5.401015869140625,0.4453723430633545,3.6128551959991455,2.5299386978149414
1750064027083007200,5.41700732421875,0.5714326500892639,1.1275380849838257,0.26502323150634766
1750064027098967800,5.4329677734375,1.6807219982147217,1.2434221506118774,-0.4827289581298828
1750064027114898000,5.44889794921875,0.8150860071182251,2.249232053756714,3.54195499420166
1750064027130950100,5.4649501953125,-0.5143003463745117,-1.224350929260254,0.35297584533691406
1750064027146911000,5.480910888671875,0.8014683723449707,-3.5117902755737305,-0.30359363555908203
1750064027162871600,5.49687158203125,0.2736591100692749,-3.99703311920166,-1.1070499420166016
1750064027178862800,5.51286279296875,0.8312619924545288,-5.460139751434326,-0.4679136276245117
1750064027194793000,5.52879296875,1.035122275352478,-5.333285331726074,-1.2335023880004883
1750064027210814700,5.544814697265625,1.1835579872131348,-4.318081855773926,-0.9710597991943359
1750064027226775300,5.560775390625,0.5086082816123962,-3.2502429485321045,-1.8275442123413086
1750064027242705700,5.57670556640625,0.02576160430908203,-2.333246946334839,-1.4978923797607422
1750064027258696700,5.59269677734375,1.2436165809631348,-2.5207459926605225,-2.0111727714538574
1750064027282592000,5.616592041015625,-0.36887073516845703,-5.0901570320129395,-6.133440017700195
1750064027298583300,5.632583251953125,-1.1250661611557007,-5.939909934997559,3.0259885787963867
1750064027314574600,5.64857470703125,2.7598440647125244,-2.4870078563690186,1.3409423828125
1750064027330535200,5.66453515625,1.036622166633606,-1.3045785427093506,4.469432830810547
1750064027346496000,5.68049609375,-2.0397450923919678,0.6897845268249512,0.019066810607910156
1750064027362517500,5.696517578125,-0.583640992641449,-2.309683322906494,1.292231559753418
1750064027378508800,5.7125087890625,6.307436943054199,0.06265115737915039,6.250819206237793
1750064027394439000,5.72843896484375,5.229501247406006,1.041884422302246,6.320528984069824
1750064027410399700,5.744399658203125,-0.28428512811660767,1.0360727310180664,5.751558303833008
1750064027426360300,5.7603603515625,-0.37255731225013733,-2.246459484100342,-1.822401523590088
1750064027442382000,5.776382080078125,-2.0894062519073486,-2.4157185554504395,-1.4962739944458008
1750064027458373400,5.792373291015625,-0.34346503019332886,1.0982732772827148,0.758913516998291
1750064027474364400,5.808364501953125,-2.111029624938965,1.1626596450805664,2.577669620513916
1750064027490355700,5.824355712890625,-1.7347230911254883,1.4454317092895508,2.91225528717041
1750064027506285800,5.840285888671875,-2.032336473464966,2.2169675827026367,3.34334659576416
1750064027522307600,5.8563076171875,-3.6693525314331055,1.7597179412841797,-0.9761691093444824
1750064027538268400,5.872268310546875,-1.4524234533309937,0.764862060546875,0.5336027145385742
1750064027554198500,5.888198486328125,0.3838987946510315,1.136706829071045,1.5499577522277832
1750064027570220300,5.90422021484375,0.07034313678741455,2.0639519691467285,0.14842844009399414
1750064027586180900,5.920180908203125,0.7134445905685425,2.620547294616699,-0.8894624710083008
1750064027602172200,5.936172119140625,0.4963573217391968,2.846355438232422,-0.757784366607666
1750064027618163500,5.95216357421875,0.44854339957237244,2.1101021766662598,-1.1604657173156738
1750064027634154500,5.968154541015625,1.3824446201324463,1.556830883026123,-1.4926905632019043
1750064027650115300,5.984115234375,2.067868947982788,2.958979606628418,-4.115752220153809
1750064027666076000,6.000075927734375,2.3775081634521484,3.203409194946289,-4.359775543212891
1750064027682006000,6.016006103515625,3.4432075023651123,1.8670530319213867,-3.992698907852173
1750064027697997300,6.031997314453125,3.788867473602295,0.5579299926757812,-2.8301339149475098
1750064027714019000,6.04801904296875,4.772734642028809,-0.1613597869873047,-1.7869255542755127
1750064027729949200,6.06394921875,6.317719459533691,-0.5723361968994141,-0.9835836887359619
1750064027745940500,6.0799404296875,2.8513965606689453,-1.4182071685791016,2.804447889328003
1750064027761962200,6.095962158203125,-5.844551086425781,-2.2210798263549805,3.2270617485046387
1750064027777922800,6.1119228515625,-11.219011306762695,-2.5961732864379883,-1.8101564645767212
1750064027793944600,6.127944580078125,-5.382379531860352,-3.3409786224365234,-2.9999427795410156
1750064027809874700,6.143874755859375,-0.9087737798690796,-3.485260009765625,-0.3615988492965698
1750064027825866000,6.159865966796875,1.496249794960022,-4.011166572570801,1.8351041078567505
1750064027841887700,6.1758876953125,2.6116561889648438,-3.4314422607421875,4.580264091491699
1750064027857879000,6.191879150390625,3.3863446712493896,-3.4422130584716797,4.3861565589904785
1750064027873839600,6.207839599609375,3.0820960998535156,-1.7700204849243164,-0.39661478996276855
1750064027889861400,6.223861328125,0.3077503442764282,0.20163345336914062,-3.8633742332458496
1750064027905822000,6.239822021484375,-0.47248291969299316,0.7615280151367188,-3.656257152557373
1750064027921813200,6.255813232421875,0.3889425992965698,-0.10066604614257812,-2.6288208961486816
1750064027937774000,6.271774169921875,0.8647060394287109,-0.47087764739990234,-0.4119865894317627
1750064027953704200,6.2877041015625,-0.037070274353027344,-0.5837621688842773,-0.05391097068786621
1750064027969756400,6.30375634765625,-0.2999953031539917,0.1867351531982422,0.20105624198913574
1750064027985717000,6.319717041015625,-0.1296001672744751,1.710374355316162,-0.5169345140457153
1750064028001647400,6.3356474609375,-0.6388894319534302,0.7476158142089844,-1.5023975372314453
1750064028017638400,6.351638427734375,0.04266011714935303,0.8896083831787109,-0.661201000213623
1750064028033660200,6.36766015625,1.2416577339172363,0.23514080047607422,0.05755734443664551
1750064028049590300,6.38359033203125,1.1503753662109375,0.28179931640625,-0.30727291107177734
1750064028065581600,6.39958154296875,0.42328083515167236,-0.6098814010620117,-0.3918100595474243
1750064028081603300,6.415603271484375,-0.41650331020355225,-0.4085073471069336,-0.5748183131217957
1750064028097594600,6.4315947265625,-0.43587493896484375,-0.09083938598632812,-0.2897834777832031
1750064028113555200,6.44755517578125,-0.32840895652770996,-0.15097999572753906,-0.0743340253829956
1750064028129577000,6.463576904296875,0.21642684936523438,0.19974994659423828,-0.5564773082733154
1750064028145537500,6.47953759765625,0.810186505317688,0.7413911819458008,-0.8167232871055603
1750064028161468000,6.495468017578125,0.6542921662330627,2.281691551208496,-1.502949595451355
1750064028177459000,6.511458984375,0.6080067753791809,1.5073928833007812,-1.8383245468139648
1750064028193480700,6.527480712890625,0.7205197215080261,0.8258247375488281,-1.8686060905456543
1750064028209380400,6.54338037109375,0.43722760677337646,0.08728599548339844,-1.345971703529358
1750064028225371600,6.55937158203125,1.6174416542053223,0.8028192520141602,1.3254321813583374
1750064028241393400,6.575393310546875,0.9063017964363098,3.5434765815734863,-3.5638434886932373
1750064028257354000,6.59135400390625,3.0541603565216064,7.1790547370910645,0.34432345628738403
1750064028273284000,6.6072841796875,2.488677978515625,7.891499996185303,1.1584875583648682
1750064028289305900,6.623305908203125,1.9010047912597656,8.205862045288086,1.41682767868042
1750064028305144600,6.63914453125,1.628523588180542,8.412176132202148,1.5775303840637207
1750064028321227300,6.655227294921875,1.4273920059204102,8.452285766601562,1.8742562532424927
1750064028337066000,6.67106591796875,0.7695271968841553,8.421797752380371,2.7299845218658447
1750064028353026600,6.687026611328125,1.1864631175994873,6.909826755523682,2.953861713409424
1750064028369017900,6.703017822265625,-0.2525608241558075,1.352482795715332,-0.4049990177154541
1750064028384978400,6.718978515625,-1.3848614692687988,-10.003395080566406,-1.228849172592163
1750064028400908800,6.73490869140625,-4.309218406677246,-21.331130981445312,2.4486947059631348
1750064028416961000,6.7509609375,-0.5747592449188232,-30.401004791259766,1.6811355352401733
1750064028432952000,6.7669521484375,5.188530921936035,-25.020401000976562,-7.396174907684326
1750064028448913000,6.782912841796875,5.722986698150635,-12.137273788452148,-6.595298767089844
1750064028464904200,6.798904296875,8.908913612365723,0.7755966186523438,-4.825688362121582
1750064028480925700,6.81492578125,6.544114589691162,4.810842514038086,-2.412184715270996
1750064028496856000,6.83085595703125,2.1198318004608154,3.1091675758361816,0.8241938352584839
1750064028512877800,6.8468779296875,0.48383215069770813,3.8258910179138184,2.0534191131591797
1750064028528808000,6.862807861328125,-0.5742617845535278,4.093742370605469,3.402527093887329
1750064028544799000,6.878799072265625,-1.0867630243301392,3.602278232574463,5.108575344085693
1750064028560820700,6.89482080078125,-1.8788492679595947,2.1459107398986816,4.8084845542907715
1750064028576812000,6.91081201171875,-2.3315765857696533,0.8499841690063477,2.2313127517700195
1750064028592803300,6.92680322265625,-2.037168025970459,-0.5781431198120117,-0.2331070899963379
1750064028608794400,6.94279443359375,-1.2740707397460938,-2.2373619079589844,-1.996201992034912
1750064028624785700,6.95878564453125,-2.0056257247924805,-3.47406005859375,-2.4420604705810547
1750064028640777000,6.97477685546875,-4.935833930969238,-2.7132740020751953,-1.2060160636901855
1750064028656737500,6.990737548828125,-7.522862911224365,-0.54217529296875,0.6404368877410889
1750064028672728800,7.006728759765625,-7.8542160987854,0.9037656784057617,0.7251904010772705
1750064028688659000,7.022658935546875,-4.342149257659912,0.7341537475585938,0.28556060791015625
1750064028704650200,7.038650146484375,-2.9499731063842773,0.40196800231933594,-0.21634578704833984
1750064028720641300,7.054641357421875,-2.2974884510040283,-0.012900352478027344,-0.2433485984802246
1750064028736602000,7.07060205078125,-1.653944969177246,-0.3954000473022461,-0.24068999290466309
1750064028752623900,7.086623779296875,-1.0332260131835938,-0.5284109115600586,-0.460721492767334
1750064028768615000,7.102614990234375,-0.4662666916847229,-0.5558757781982422,-0.457747220993042
1750064028784606200,7.118606201171875,0.10227733850479126,-0.523137092590332,-0.32608675956726074
1750064028800505900,7.134505859375,0.5873644351959229,-0.41242313385009766,-0.24540066719055176
1750064028816497200,7.1504970703125,0.9062111377716064,-0.2285175323486328,-0.13727855682373047
1750064028832549400,7.16654931640625,1.0189975500106812,-0.15110111236572266,-0.13405227661132812
1750064028848479500,7.1824794921875,1.2232412099838257,-0.15389251708984375,0.02902054786682129
1750064028864470800,7.198470703125,1.3271405696868896,-0.045584678649902344,0.2222611904144287
1750064028880492500,7.214492431640625,1.3761446475982666,0.032141685485839844,0.14721918106079102
1750064028896483600,7.230483642578125,1.1977105140686035,0.09399127960205078,0.21816802024841309
1750064028912444400,7.2464443359375,1.1751830577850342,0.011098861694335938,0.4335813522338867
1750064028928466200,7.262466064453125,1.2416250705718994,-0.042331695556640625,0.45627403259277344
1750064028944426800,7.2784267578125,1.3247592449188232,-0.007778167724609375,0.24703359603881836
1750064028960418000,7.29441796875,1.4044325351715088,0.17997169494628906,0.2174537181854248
1750064028976409000,7.3104091796875,1.5031459331512451,0.08883190155029297,0.45595788955688477
1750064028992430800,7.326430908203125,1.415482997894287,-0.26650047302246094,0.47020983695983887
1750064029008361200,7.342361328125,1.5168659687042236,-0.22980785369873047,-0.08153343200683594
1750064029024352300,7.358352294921875,1.2581372261047363,0.0615997314453125,-0.9822015762329102
1750064029040374000,7.3743740234375,1.4221272468566895,0.269927978515625,-0.5465688705444336
1750064029056365300,7.390365234375,1.5301170349121094,0.5015649795532227,-0.4246029853820801
1750064029072326000,7.406325927734375,1.9373211860656738,0.6077899932861328,-1.0389995574951172
1750064029088347600,7.42234765625,1.9156577587127686,0.36415672302246094,-1.2302074432373047
1750064029104308500,7.43830859375,1.2476310729980469,0.16680908203125,-0.9803850650787354
1750064029120269000,7.45426904296875,0.40306350588798523,-0.18145084381103516,-0.8583242893218994
1750064029136260400,7.47026025390625,-0.3054986298084259,-0.31385231018066406,-0.6290638446807861
1750064029152282000,7.4862822265625,-0.8192658424377441,-0.25304412841796875,-0.4410429000854492
1750064029168212200,7.502212158203125,-1.0600649118423462,-0.1857452392578125,-0.2975194454193115
1750064029184203500,7.51820361328125,-1.0283528566360474,-0.06483745574951172,-0.2098238468170166
1750064029200225000,7.53422509765625,-0.8650181889533997,0.023752212524414062,-0.11998248100280762
1750064029216185900,7.550185791015625,-0.9462562203407288,0.007193565368652344,0.15784955024719238
1750064029232116000,7.566115966796875,-1.2546377182006836,-0.09489154815673828,0.48412442207336426
1750064029248137700,7.5821376953125,-1.6433546543121338,-0.11063003540039062,0.5521562099456787
1750064029264098300,7.598098388671875,-1.818076491355896,-0.11012649536132812,0.6895713806152344
1750064029279998000,7.613998046875,-1.7985124588012695,-0.11931991577148438,0.5962889194488525
1750064029295989200,7.6299892578125,-1.5930805206298828,-0.18077754974365234,0.514808177947998
1750064029312041500,7.64604150390625,-1.415177822113037,-0.33330821990966797,0.47494935989379883
1750064029327971600,7.6619716796875,-1.2465859651565552,-0.39673900604248047,0.6403195858001709
1750064029343963000,7.677962890625,-1.0907330513000488,-0.32280445098876953,0.8615057468414307
1750064029359984600,7.693984619140625,-1.0214625597000122,-0.1580209732055664,0.8478844165802002
1750064029375976000,7.709975830078125,-1.0041682720184326,-0.1673603057861328,0.915330171585083
1750064029391906000,7.725906005859375,-1.0011872053146362,-0.3337678909301758,1.1112557649612427
1750064029407927800,7.741927734375,-0.9766829013824463,-0.38757991790771484,1.084753155708313
1750064029423888400,7.757888427734375,-0.8731681704521179,-0.3501720428466797,0.95953369140625
1750064029439818800,7.77381884765625,-0.7582634091377258,-0.24628543853759766,0.7851696014404297
1750064029455779300,7.789779296875,-0.5865355730056763,-0.0773162841796875,0.5281422138214111
1750064029471801000,7.805801025390625,-0.4492810368537903,-0.030826568603515625,0.21825528144836426
1750064029487792400,7.82179248046875,-0.29854923486709595,-0.034485816955566406,-0.044086456298828125
1750064029503753000,7.8377529296875,-0.0545966774225235,0.03372955322265625,-0.38566136360168457
1750064029527740000,7.861739990234375,0.24595338106155396,0.0676565170288086,-0.6820528507232666
1750064029543700500,7.877700439453125,0.449293315410614,0.11784172058105469,-0.9219391345977783
1750064029559661000,7.8936611328125,0.6074889302253723,0.14140701293945312,-1.0474228858947754
1750064029575652400,7.90965234375,0.6711912751197815,0.20565032958984375,-1.1129169464111328
1750064029591582500,7.92558251953125,0.6785808205604553,0.31573963165283203,-1.2522661685943604
1750064029607573800,7.94157373046875,0.6528390645980835,0.35474681854248047,-1.4707863330841064
1750064029623534300,7.957534423828125,0.6590840816497803,0.3984947204589844,-1.6827967166900635
1750064029639464700,7.973464599609375,0.7376923561096191,0.39820289611816406,-1.7802016735076904
1750064029655425300,7.98942529296875,0.43328505754470825,0.22634029388427734,-0.985389232635498
1750064029671477500,8.0054775390625,0.6029857993125916,0.2366485595703125,-0.9765210151672363
1750064029687468800,8.02146875,0.6971990466117859,0.15767288208007812,-0.9163918495178223
1750064029703429400,8.037429443359375,0.7324550151824951,0.13625144958496094,-0.931833028793335
1750064029719451100,8.053451171875,0.6900964379310608,0.08136749267578125,-0.8360106945037842
1750064029735412000,8.069411865234375,0.5459381937980652,0.09516143798828125,-0.5790553092956543
1750064029751403000,8.085403076171875,0.41985973715782166,0.12604427337646484,-0.3332047462463379
1750064029767333400,8.10133349609375,0.31259238719940186,0.21745777130126953,-0.05285906791687012
1750064029783294000,8.1172939453125,0.25615444779396057,0.18756103515625,0.19100236892700195
1750064029799315700,8.133315673828125,0.23128771781921387,-0.056046485900878906,0.5405046939849854
1750064029815307000,8.14930712890625,0.1594938039779663,-0.3421144485473633,0.8879063129425049
1750064029831267600,8.165267578125,-0.03331834077835083,-0.4857625961303711,1.1334631443023682
1750064029847319800,8.18131982421875,-0.3006172776222229,-0.4618072509765625,1.3100674152374268
1750064029863280600,8.19728076171875,-0.5195160508155823,-0.2906026840209961,1.459101676940918
1750064029879210800,8.213210693359375,-0.7295330166816711,-0.21747779846191406,1.6068391799926758
1750064029895202000,8.2292021484375,-0.8658125400543213,-0.23920536041259766,1.7075012922286987
1750064029911193000,8.245193115234375,-0.9520248770713806,-0.45537281036376953,1.5423271656036377
1750064029927123200,8.261123291015625,-0.9848153591156006,-0.6993894577026367,1.2442936897277832
1750064029951140600,8.285140625,-0.9656097292900085,-0.6802406311035156,1.1727349758148193
1750064029967132000,8.3011318359375,-0.9145108461380005,-0.4022693634033203,1.3026115894317627
1750064029991088000,8.325088134765625,-0.8844845294952393,-0.27994441986083984,1.5024735927581787
1750064030007079400,8.341079345703125,-0.9665181040763855,-0.49738502502441406,1.5308458805084229
1750064030023040000,8.3570400390625,-1.134213924407959,-0.7434368133544922,1.6002142429351807
1750064030039031300,8.37303125,-1.280714988708496,-0.7967433929443359,1.7114145755767822
1750064030054992000,8.388991943359375,-1.3399500846862793,-0.7195777893066406,1.9846184253692627
1750064030070922200,8.404922119140625,-1.3630255460739136,-0.5847415924072266,2.304731845855713
1750064030086944000,8.420944091796875,-1.2753723859786987,-0.40840721130371094,2.5163092613220215
1750064030102904600,8.436904541015625,-1.3060723543167114,-0.3337831497192383,2.3201980590820312
1750064030118926300,8.45292626953125,-1.3490233421325684,-0.3755836486816406,2.0052742958068848
1750064030134887000,8.468886962890625,-1.4144033193588257,-0.3955039978027344,1.70570969581604
1750064030150878200,8.484878173828125,-1.3794184923171997,-0.41091442108154297,1.3567864894866943
1750064030166869500,8.500869384765625,-1.1669487953186035,-0.42330360412597656,0.8629484176635742
1750064030182830000,8.516830078125,-0.8532242774963379,-0.42436981201171875,0.38181185722351074
1750064030198821400,8.5328212890625,-0.5385820269584656,-0.3734550476074219,0.14464402198791504
1750064030214782000,8.548781982421875,-0.2556751072406769,-0.3181266784667969,0.05666518211364746
1750064030230773200,8.564773193359375,-0.1490267813205719,-0.223968505859375,-0.10068917274475098
1750064030246733800,8.58073388671875,-0.00039631128311157227,0.0057964324951171875,-0.3935110569000244
1750064030262694700,8.596694580078125,0.05149871110916138,0.19339847564697266,-0.5364055633544922
1750064030286651000,8.62065087890625,0.10956454277038574,0.13034534454345703,-0.517824649810791
1750064030302642200,8.63664208984375,0.2028472125530243,0.07038688659667969,-0.43260836601257324
1750064030318664000,8.652663818359375,0.33625558018684387,-0.06002998352050781,-0.44725918769836426
1750064030334655000,8.668655029296875,0.4716220796108246,-0.19788360595703125,-0.48831677436828613
1750064030350585300,8.68458544921875,0.5671534538269043,-0.1060791015625,-0.4010617733001709
1750064030366606800,8.70060693359375,0.6563175916671753,0.19678306579589844,-0.3063023090362549
1750064030382567700,8.716567626953125,0.7077297568321228,0.4905109405517578,-0.11049032211303711
1750064030398467300,8.73246728515625,0.7581664323806763,0.5328817367553711,0.16376972198486328
1750064030414458600,8.748458740234375,0.7617114782333374,0.2587909698486328,0.3095231056213379
1750064030430480100,8.764480224609375,0.8038321733474731,-0.07645702362060547,0.3844571113586426
1750064030446471400,8.780471435546875,0.8156611919403076,-0.2860879898071289,0.5726778507232666
1750064030462432300,8.796432373046875,0.7798299789428711,-0.3762531280517578,0.7488446235656738
1750064030478392800,8.812392822265625,0.6539835333824158,-0.36497020721435547,0.969383955001831
1750064030494353700,8.828353759765625,0.4892162084579468,-0.28049564361572266,1.117802381515503
1750064030510283800,8.84428369140625,0.3298801779747009,-0.20877742767333984,1.231635332107544
1750064030526274800,8.86027490234375,0.150348961353302,-0.2292947769165039,1.2690389156341553
1750064030542235600,8.876235595703125,0.01481938362121582,-0.38542652130126953,1.1949303150177002
1750064030558196200,8.8921962890625,-0.09523963928222656,-0.6128463745117188,1.201723575592041
1750064030574126600,8.908126708984375,-0.2558709383010864,-0.7763824462890625,1.1755328178405762
1750064030590056700,8.924056640625,-0.3774339556694031,-0.7854146957397461,1.241898775100708
1750064030606078500,8.940078369140625,-0.33684009313583374,-0.3204984664916992,0.6936371326446533
1750064030622039000,8.9560390625,-0.33905601501464844,0.047962188720703125,0.4358632564544678
1750064030638030300,8.9720302734375,-0.3561263978481293,0.19850635528564453,0.4303586483001709
1750064030654021600,8.988021728515625,-0.4708797335624695,0.08642387390136719,0.46921205520629883
1750064030669951700,9.00395166015625,-0.5833031535148621,-0.0983591079711914,0.49670910835266113
1750064030685973500,9.019973388671875,-0.6994845271110535,-0.29276180267333984,0.5537292957305908
1750064030701934000,9.03593408203125,-0.7988982200622559,-0.3567075729370117,0.576805591583252
1750064030717864200,9.0518642578125,-0.8429653644561768,-0.24096965789794922,0.49492406845092773
1750064030733855500,9.06785546875,-0.8341296911239624,-0.014981269836425781,0.30335521697998047
1750064030749907700,9.08390771484375,-0.8307604789733887,0.16214752197265625,0.0966637134552002
1750064030765837800,9.099837890625,-0.8340343832969666,0.2817716598510742,-0.1418154239654541
1750064030781829000,9.1158291015625,-0.8230559229850769,0.34063720703125,-0.4021573066711426
1750064030797851000,9.131850830078125,-0.7899550199508667,0.3426704406738281,-0.5966408252716064
1750064030813842200,9.14784228515625,-0.7001852989196777,0.35915374755859375,-0.7758064270019531
1750064030829772300,9.163772216796875,-0.5015057921409607,0.33940696716308594,-1.0247528553009033
1750064030845763600,9.179763671875,-0.3319283425807953,0.2704458236694336,-1.2153639793395996
1750064030861724200,9.19572412109375,-0.14899228513240814,0.2112741470336914,-1.3020703792572021
1750064030877715500,9.211715576171875,-0.04876667261123657,0.25029468536376953,-1.4520275592803955
1750064030893645600,9.2276455078125,0.04289571940898895,0.26999759674072266,-1.5734208822250366
1750064030909636900,9.243636962890625,0.1331903338432312,0.09587287902832031,-0.8176383972167969
1750064030925597400,9.259597412109375,0.1375456154346466,-0.00890350341796875,-0.35826969146728516
1750064030941558000,9.27555810546875,0.19641688466072083,-0.010504722595214844,-0.2338242530822754
1750064030957488400,9.29148828125,0.36276304721832275,-0.02125072479248047,-0.17171144485473633
1750064030973479400,9.3074794921875,0.5084714889526367,-0.060871124267578125,-0.19220542907714844
1750064030989501200,9.323501220703125,0.5790280103683472,-0.1565084457397461,-0.043060302734375
1750064031005492500,9.339492431640625,0.6224585771560669,-0.2356891632080078,0.10847687721252441
1750064031021483800,9.35548388671875,0.7864946722984314,-0.21845340728759766,0.259904146194458
1750064031037444400,9.3714443359375,1.0700052976608276,-0.2319803237915039,0.3314504623413086
1750064031053496600,9.38749658203125,1.177191972732544,-0.24967098236083984,0.44725918769836426
1750064031069487900,9.40348779296875,1.2419962882995605,-0.2710142135620117,0.6207540035247803
1750064031085509600,9.419509521484375,1.2157412767410278,-0.33128833770751953,0.8171160221099854
1750064031101439700,9.435439697265625,1.1161479949951172,-0.37166309356689453,0.8987224102020264
1750064031117431000,9.45143115234375,1.0727081298828125,-0.30291271209716797,1.0795540809631348
1750064031133422000,9.467422119140625,0.9898474812507629,-0.25806427001953125,1.1773698329925537
1750064031149352400,9.4833525390625,0.8945826888084412,-0.24117088317871094,1.1687252521514893
1750064031165374000,9.4993740234375,0.8035376071929932,-0.2713003158569336,1.1706819534301758
1750064031181334800,9.515334716796875,0.7345212697982788,-0.3226127624511719,0.9903936386108398
1750064031197295400,9.53129541015625,0.5924632549285889,-0.4006471633911133,0.9145541191101074
1750064031213256200,9.547256103515625,0.5075298547744751,-0.41973114013671875,0.8533785343170166
1750064031229186300,9.563186279296875,0.22154375910758972,-0.118865966796875,0.40518641471862793
1750064031245208000,9.5792080078125,-0.023946702480316162,0.15018272399902344,-0.030960559844970703
1750064031261168600,9.595168701171875,-0.06268823146820068,0.10196304321289062,-0.1838686466217041
1750064031277160000,9.611159912109375,-0.16222822666168213,-0.11086368560791016,-0.2572147846221924
1750064031293151200,9.627151123046875,-0.23508012294769287,-0.2986431121826172,-0.2934551239013672
1750064031309081300,9.643081298828125,-0.35512980818748474,-0.23609066009521484,-0.23412680625915527
1750064031325103000,9.65910302734375,-0.5468155145645142,-0.18035888671875,-0.1696007251739502
1750064031341063700,9.675063720703125,-0.6858750581741333,-0.16180992126464844,-0.1375424861907959
1750064031356994000,9.690994140625,-0.7809189558029175,-0.2093057632446289,-0.0033304691314697266
1750064031372985000,9.706985107421875,-0.9849059581756592,-0.17217063903808594,0.1257791519165039
1750064031388976400,9.722976318359375,-1.3256640434265137,-0.15514659881591797,0.2322254180908203
1750064031404937000,9.73893701171875,-1.6966321468353271,-0.14304828643798828,0.2693028450012207
1750064031420897800,9.754897705078125,-1.9353601932525635,-0.16053485870361328,0.2676422595977783
1750064031436919600,9.77091943359375,-1.9030823707580566,-0.09197998046875,0.10405182838439941
1750064031452880100,9.786880126953125,-1.681453824043274,0.0431671142578125,-0.007816314697265625
1750064031468841000,9.802841064453125,-1.3460030555725098,0.037540435791015625,0.015545845031738281
1750064031484832000,9.81883203125,-1.1018214225769043,0.08450794219970703,-0.0027871131896972656
1750064031500823300,9.8348232421875,-1.042227029800415,0.06353282928466797,-0.15052366256713867
1750064031516723000,9.850722900390625,-1.1359738111495972,0.07645130157470703,-0.0978846549987793
1750064031532714200,9.86671435546875,-1.3132249116897583,-0.010074615478515625,-0.22324419021606445
1750064031548735700,9.88273583984375,-1.4735451936721802,-0.1832599639892578,-0.32655906677246094
1750064031564727000,9.89872705078125,-1.505529761314392,-0.2944755554199219,-0.43859410285949707
1750064031580688000,9.91468798828125,-1.3866490125656128,-0.11707019805908203,-0.47774219512939453
1750064031596587500,9.93058740234375,-1.2301087379455566,0.242919921875,-0.364154577255249
1750064031612578600,9.94657861328125,-1.0317611694335938,0.47798728942871094,-0.3607642650604248
1750064031628569900,9.96256982421875,-0.9565221667289734,0.36176490783691406,-0.4137599468231201
1750064031644530400,9.978530517578125,-0.9642331600189209,0.053879737854003906,-0.46302127838134766
1750064031660491300,9.9944912109375,-0.9471452236175537,-0.06490325927734375,-0.4413738250732422
1750064031676451800,10.010451904296875,-0.7364391088485718,-0.08353805541992188,-0.26111412048339844
1750064031692412700,10.02641259765625,-0.4021884799003601,-0.12837505340576172,-0.14296603202819824
1750064031708342800,10.0423427734375,-0.01085573434829712,-0.22586727142333984,-0.011048555374145508
1750064031732390700,10.066390625,0.4859060049057007,-0.41855430603027344,0.1846773624420166
1750064031756408000,10.090407958984375,0.8039748072624207,-0.40106678009033203,0.3315098285675049
1750064031772338200,10.106338134765625,0.781624436378479,-0.24521160125732422,0.38065218925476074
1750064031788360000,10.12235986328125,0.9252975583076477,0.2042226791381836,0.5156755447387695
1750064031804290000,10.1382900390625,0.716041088104248,0.653721809387207,0.5517411231994629
1750064031820281300,10.15428125,0.7380991578102112,0.6719064712524414,0.8513498306274414
1750064031836303000,10.17030322265625,0.6899965405464172,0.5981082916259766,0.8996901512145996
1750064031852294100,10.186294189453125,0.6742565631866455,0.6352834701538086,0.5710718631744385
1750064031868224500,10.202224609375,0.7470201253890991,0.6879787445068359,0.45610642433166504
1750064031884246000,10.21824609375,0.9687948226928711,0.6470203399658203,0.40619921684265137
1750064031900206800,10.234206787109375,1.2265268564224243,0.6898641586303711,0.24359560012817383
1750064031916137000,10.250136962890625,1.6384090185165405,0.8163528442382812,0.029914140701293945
1750064031932128300,10.266128173828125,1.7136236429214478,0.8006477355957031,-0.22233009338378906
1750064031948119300,10.282119384765625,1.610281229019165,0.495269775390625,-0.40581321716308594
1750064031964110600,10.298110595703125,1.0814906358718872,0.22359085083007812,-0.21800899505615234
1750064031980071400,10.314071533203125,0.3217915892601013,0.1943836212158203,-0.15245914459228516
1750064031996001500,10.33000146484375,-0.21694442629814148,0.3175487518310547,-0.16455984115600586
1750064032011992800,10.345992919921875,0.04226092994213104,0.31865596771240234,-0.0640108585357666
1750064032028045000,10.362045166015625,1.0041823387145996,0.06820297241210938,0.04117274284362793
1750064032044005600,10.378005615234375,0.8819814920425415,-0.30977439880371094,0.6267833709716797
1750064032060027400,10.39402734375,-0.17543697357177734,-0.651057243347168,1.1757547855377197
1750064032076049200,10.410049072265625,-1.2890034914016724,-1.0433893203735352,1.4394673109054565
1750064032092040200,10.426040283203125,-2.0892369747161865,-1.5594892501831055,1.7134937047958374
1750064032108031500,10.442031494140625,-2.8284082412719727,-1.694361686706543,1.9363560676574707
1750064032124022800,10.458022705078125,-2.730595588684082,-1.4226961135864258,2.2861764430999756
1750064032140013800,10.474013916015625,-1.8210362195968628,-1.2065849304199219,2.6063506603240967
1750064032156035600,10.49003564453125,-1.3438835144042969,-1.0675268173217773,2.8541510105133057
1750064032171966000,10.505966064453125,-1.5427167415618896,-1.0619029998779297,3.0645039081573486
1750064032187957000,10.52195703125,-2.1277544498443604,-1.3700332641601562,2.9742534160614014
1750064032203917800,10.537917724609375,-2.6663670539855957,-1.7334184646606445,2.709782361984253
1750064032219878400,10.55387841796875,-2.564732551574707,-1.9480743408203125,2.5803184509277344
1750064032235900200,10.569900146484375,-2.021239757537842,-1.6570053100585938,2.314255952835083
1750064032251861000,10.585861083984375,-1.8396451473236084,-1.3461275100708008,1.7252388000488281
1750064032267821600,10.601821533203125,-1.8259131908416748,-1.1416339874267578,1.2259914875030518
1750064032283873800,10.617873779296875,-1.919626235961914,-0.8803443908691406,0.8368608951568604
1750064032299834600,10.633834716796875,-2.0539402961730957,-0.7782783508300781,0.42740845680236816
1750064032315764700,10.6497646484375,-1.8176298141479492,-0.2035369873046875,0.33022212982177734
1750064032331755800,10.665755859375,-1.6475929021835327,0.4647054672241211,0.45679140090942383
1750064032347747000,10.6817470703125,-1.6293714046478271,0.8353757858276367,0.355212926864624
1750064032363738400,10.69773828125,-1.0258166790008545,0.9829616546630859,0.0004546642303466797
1750064032379699000,10.713698974609375,-0.744708240032196,0.6518831253051758,-0.26492977142333984
1750064032403686000,10.737685791015625,0.0029101669788360596,0.15956974029541016,-0.6856222152709961
1750064032419677000,10.753677001953125,0.5074402093887329,0.04139423370361328,-0.5861282348632812
1750064032435637800,10.7696376953125,1.0833680629730225,-0.010865211486816406,-0.18247342109680176
1750064032451598300,10.785598388671875,1.574963092803955,-0.06278800964355469,0.16800618171691895
1750064032467528700,10.80152880859375,1.6163132190704346,-0.19204330444335938,0.47871172428131104
1750064032483519700,10.817519775390625,1.4675343036651611,-0.24427032470703125,0.8003925085067749
1750064032499480600,10.83348046875,1.322740912437439,-0.25934886932373047,1.1572952270507812
1750064032515502300,10.84950244140625,1.1660428047180176,-0.07778549194335938,1.3523591756820679
1750064032531463000,10.865462890625,1.069665789604187,0.12857532501220703,1.4123847484588623
1750064032547393000,10.88139306640625,0.9262439012527466,0.07743358612060547,1.4299547672271729
1750064032563414800,10.897414794921875,0.8024669289588928,-0.12076759338378906,1.1237965822219849
1750064032579375600,10.913375732421875,0.5045372247695923,-0.3568735122680664,0.8879586458206177
1750064032595336200,10.929336181640625,-0.06368190050125122,-0.3661518096923828,0.16144490242004395
1750064032611327500,10.945327392578125,-0.17530101537704468,-0.4294166564941406,0.015049099922180176
1750064032627318500,10.961318603515625,-0.22370824217796326,-0.6022405624389648,-0.025342464447021484
1750064032643249000,10.977248779296875,-0.48749205470085144,-0.7936010360717773,-0.053342342376708984
1750064032659270700,10.993270751953125,-0.7946746945381165,-0.5846281051635742,0.11312747001647949
1750064032675261700,11.00926171875,-0.9307006597518921,-0.05184745788574219,0.5789189338684082
1750064032691253000,11.0252529296875,-0.9960684776306152,0.42751026153564453,0.9365663528442383
1750064032707274800,11.041274658203125,-0.7028032541275024,0.7876577377319336,0.7278147339820862
1750064032723265800,11.057265869140625,-0.7925863862037659,0.6593303680419922,0.49870479106903076
1750064032739257000,11.073257080078125,-0.829774796962738,-0.1969614028930664,-0.05845487117767334
1750064032755248400,11.089248291015625,-0.7790737748146057,-0.7351779937744141,-0.7014304399490356
1750064032771239400,11.105239501953125,-0.6703450679779053,-0.7152509689331055,-1.1031148433685303
1750064032787230700,11.121230712890625,-0.3557038903236389,-0.23022174835205078,-1.0047141313552856
1750064032803160800,11.137160888671875,-0.21183538436889648,0.22063636779785156,-0.7476056814193726
1750064032819121700,11.15312158203125,-0.2198166847229004,0.6665744781494141,-0.661851167678833
1750064032835112700,11.16911279296875,-0.16473686695098877,0.7311811447143555,-0.4438859224319458
1750064032851073500,11.185073486328125,0.09271222352981567,0.5495033264160156,-0.580005407333374
1750064032867095300,11.20109521484375,0.42963969707489014,0.1765756607055664,-0.6480535268783569
1750064032883086300,11.21708642578125,0.8914249539375305,0.028632164001464844,-0.6525169610977173
1750064032899047200,11.233047119140625,1.392652988433838,0.27310752868652344,-0.6949629783630371
1750064032915069000,11.24906884765625,1.7064120769500732,0.4817819595336914,-0.4983311891555786
1750064032931060000,11.26506005859375,1.5677517652511597,0.5186729431152344,-0.14563822746276855
1750064032947051300,11.28105126953125,1.7779498100280762,0.36971473693847656,-0.01825428009033203
1750064032963042600,11.29704248046875,1.824141263961792,0.1993246078491211,0.0658867359161377
1750064032979033600,11.31303369140625,1.7164077758789062,0.0003185272216796875,0.10561776161193848
1750064032995025000,11.32902490234375,1.6736271381378174,-0.06083393096923828,0.031423091888427734
1750064033010985700,11.34498583984375,1.6259316205978394,-0.05939197540283203,0.012272357940673828
1750064033026976800,11.360976806640625,1.5871492624282837,-0.08144569396972656,-0.002989053726196289
1750064033042907100,11.3769072265625,1.613481044769287,-0.08878040313720703,-0.07672953605651855
1750064033058928600,11.3929287109375,1.7205941677093506,-0.019374847412109375,-0.19317889213562012
1750064033074920000,11.408919921875,1.6942273378372192,-0.009297370910644531,-0.3844330310821533
1750064033090880800,11.424880859375,1.5570752620697021,-0.2700634002685547,-0.6439163684844971
1750064033106871800,11.440871826171875,1.3231154680252075,-0.5543184280395508,-0.9167754650115967
1750064033122802000,11.456802001953125,1.0648548603057861,-0.4130287170410156,-1.0107109546661377
1750064033138823700,11.47282373046875,0.7627943754196167,-0.010142326354980469,-0.8795866966247559
1750064033154815000,11.48881494140625,0.45082712173461914,0.2752866744995117,-0.8156354427337646
1750064033170775600,11.504775634765625,0.08580023050308228,0.43226051330566406,-0.8150246143341064
1750064033186706000,11.520705810546875,-0.27241289615631104,0.529017448425293,-0.7822287082672119
1750064033202697000,11.536697021484375,-0.614804208278656,0.5465326309204102,-0.7359209060668945
1750064033218657800,11.55265771484375,-0.848770022392273,0.18355464935302734,-0.353381872177124
1750064033234679600,11.568679443359375,-0.7794765830039978,-0.05157947540283203,-0.3776838779449463
1750064033250670600,11.584670654296875,-0.8053439259529114,0.025300025939941406,-0.6354734897613525
1750064033266601000,11.60060107421875,-0.7476150393486023,0.3613300323486328,-0.6898059844970703
1750064033282592000,11.616592041015625,-0.5571390390396118,0.7817554473876953,-0.639237642288208
1750064033298552800,11.632552734375,-0.46842503547668457,0.9877901077270508,-0.49080348014831543
1750064033314543900,11.6485439453125,-0.34781086444854736,0.7640695571899414,-0.45287275314331055
1750064033330504700,11.664504638671875,-0.17541956901550293,0.14955806732177734,-0.4196319580078125
1750064033346434800,11.680434814453125,-0.005525648593902588,-0.11574363708496094,-0.25030517578125
1750064033362487000,11.696487060546875,0.2545627951622009,-0.05056571960449219,0.1013031005859375
1750064033378448000,11.71244775390625,0.5304244756698608,0.046675682067871094,0.6045844554901123
1750064033394469600,11.7284697265625,0.7224447727203369,-0.012140274047851562,1.035154104232788
1750064033410430200,11.74443017578125,0.5411839485168457,-0.11161231994628906,1.1032695770263672
1750064033426421500,11.76042138671875,0.5687355995178223,-0.38965415954589844,1.1170237064361572
1750064033442351600,11.7763515625,0.4792866110801697,-0.3592720031738281,0.7178562879562378
1750064033458373400,11.792373291015625,0.40150049328804016,-0.05867290496826172,0.21025347709655762
1750064033474364400,11.808364501953125,0.4450500011444092,0.17986297607421875,-0.20747756958007812
1750064033490355700,11.824355712890625,0.4825400710105896,0.3532075881958008,-0.45280933380126953
1750064033506347000,11.840346923828125,0.4491501450538635,0.4581928253173828,-0.715956449508667
1750064033522246700,11.85624658203125,0.41570040583610535,0.5948562622070312,-0.8511693477630615
1750064033538237700,11.87223779296875,0.39242446422576904,0.5853233337402344,-0.6696505546569824
1750064033554229000,11.88822900390625,0.5093225240707397,0.39084625244140625,-0.6610028743743896
1750064033570189800,11.90418994140625,0.5489444136619568,0.19386863708496094,-0.7937946319580078
1750064033586180900,11.920180908203125,0.484089195728302,0.1937255859375,-0.8710265159606934
1750064033602172200,11.936172119140625,0.4522780478000641,0.4425325393676758,-0.7954890727996826
1750064033618163500,11.95216357421875,0.24638240039348602,0.5957622528076172,-0.4250504970550537
1750064033634093600,11.968093505859375,0.2317940592765808,0.4312858581542969,-0.34629178047180176
1750064033650054100,11.98405419921875,0.17426219582557678,0.022935867309570312,-0.4618709087371826
1750064033666076000,12.000075927734375,0.11250774562358856,-0.27749061584472656,-0.5223658084869385
1750064033682067200,12.016067138671875,0.015561286360025406,-0.3384685516357422,-0.40102124214172363
1750064033698027800,12.03202783203125,-0.19084714353084564,-0.22665786743164062,-0.2674281597137451
1750064033713958100,12.047958251953125,-0.4187455177307129,-0.21805763244628906,0.08074235916137695
1750064033729949200,12.06394921875,-0.6068781018257141,-0.33769798278808594,0.29412031173706055
1750064033745971000,12.079970947265625,-0.7929257154464722,-0.4815635681152344,0.4579739570617676
1750064033761962200,12.095962158203125,-0.80801922082901,-0.5545425415039062,0.45302414894104004
1750064033777922800,12.1119228515625,-0.8076299428939819,-0.4656515121459961,0.35114574432373047
1750064033793944600,12.127944580078125,-0.7959531545639038,-0.3427419662475586,0.23634052276611328
1750064033809905400,12.143905517578125,-0.62416672706604,-0.14446163177490234,0.10851430892944336
1750064033825835500,12.15983544921875,-0.5870524644851685,-0.01871967315673828,0.012968778610229492
1750064033841857300,12.175857177734375,-0.8853769898414612,-0.19130325317382812,-0.2703895568847656
1750064033857848300,12.191848388671875,-1.1257801055908203,-0.2795133590698242,-0.5684459209442139
1750064033873870000,12.2078701171875,-1.1995186805725098,-0.1913127899169922,-0.8033933639526367
1750064033889861400,12.223861328125,-1.0764198303222656,0.10088825225830078,-0.7558741569519043
1750064033905822000,12.239822021484375,-0.8995153903961182,0.2874727249145508,-0.5405573844909668
1750064033921813200,12.255813232421875,-0.713637113571167,0.25129222869873047,-0.34278082847595215
1750064033937774000,12.271774169921875,-0.42895448207855225,0.055057525634765625,-0.09969782829284668
1750064033953795600,12.287795654296875,-0.003376483917236328,-0.09700679779052734,0.1807100772857666
1750064033969787000,12.303786865234375,0.4037240147590637,-0.26079559326171875,0.3660621643066406
1750064033985717000,12.319717041015625,0.6925298571586609,-0.3783454895019531,0.5547370910644531
1750064034001708300,12.335708251953125,0.8871068358421326,-0.34343624114990234,0.7601912021636963
1750064034017699600,12.351699462890625,0.9041098356246948,-0.27671241760253906,0.7933022975921631
1750064034033721300,12.367721435546875,0.7881531715393066,-0.2945213317871094,0.6038527488708496
1750064034049712400,12.38371240234375,0.7263387441635132,-0.2986030578613281,0.34502434730529785
1750064034065642500,12.399642578125,0.6701918840408325,-0.2689361572265625,0.18790173530578613
1750064034081695000,12.415695068359375,0.6644703149795532,-0.22205066680908203,0.12076473236083984
1750064034097655600,12.431655517578125,0.7348471879959106,-0.0829916000366211,0.04141378402709961
1750064034113677300,12.44767724609375,0.7493097186088562,-0.03434181213378906,0.0346837043762207
1750064034129668600,12.463668701171875,0.7496309280395508,-0.033194541931152344,0.022249698638916016
1750064034145598700,12.4795986328125,0.6773282289505005,0.083648681640625,-0.007831335067749023
1750064034161651000,12.49565087890625,0.5050216317176819,0.2614288330078125,0.07614564895629883
1750064034177611500,12.511611572265625,0.2994196116924286,0.4904060363769531,0.019547581672668457
1750064034193633300,12.52763330078125,0.07274842262268066,0.5912752151489258,-0.21888601779937744
1750064034209624600,12.54362451171875,-0.13175269961357117,0.5991220474243164,-0.6605798006057739
1750064034225554700,12.5595546875,-0.3029392957687378,0.6179313659667969,-1.08646559715271
1750064034241576400,12.575576416015625,-0.44457364082336426,0.5220909118652344,-1.4405165910720825
1750064034257567700,12.591567626953125,-0.6499123573303223,0.3801717758178711,-1.7319934368133545
1750064034273558800,12.607558837890625,-0.7386168241500854,0.1956024169921875,-1.2423145771026611
1750064034289550000,12.623550048828125,-0.7832919359207153,0.24930095672607422,-0.9136550426483154
1750064034305541400,12.639541259765625,-0.6411085724830627,0.23336124420166016,-0.6676485538482666
1750064034321471500,12.655471435546875,-0.7290468811988831,0.17049312591552734,-0.46842265129089355
1750064034337462800,12.671462890625,-1.2213821411132812,0.021584510803222656,-0.22287535667419434
1750064034353453800,12.687453857421875,-1.843334436416626,-0.03886699676513672,0.13455867767333984
1750064034369414700,12.70341455078125,-1.6044899225234985,-0.016304969787597656,0.4575004577636719
1750064034385436400,12.7194365234375,-1.0594383478164673,0.08999443054199219,0.6004559993743896
1750064034401427500,12.735427490234375,-0.6153873205184937,0.09255695343017578,0.8001785278320312
1750064034417357800,12.75135791015625,-0.2667781412601471,-0.039719581604003906,0.8817119598388672
1750064034433318400,12.767318359375,0.0037967562675476074,-0.2162008285522461,0.9394271373748779
1750064034449279000,12.783279052734375,0.2605926990509033,-0.16988468170166016,1.28336501121521
1750064034465300700,12.79930078125,0.4438910484313965,-0.2012653350830078,1.5341298580169678
1750064034481353000,12.81535302734375,0.6456629037857056,-0.1570148468017578,1.321745753288269
1750064034497344300,12.83134423828125,0.7363941073417664,-0.056563377380371094,0.936374306678772
1750064034513366000,12.847365966796875,0.7624205946922302,-0.021910667419433594,1.0156055688858032
1750064034529357300,12.863357421875,0.7511582970619202,-0.07153129577636719,1.038596272468567
1750064034545287400,12.879287353515625,0.8505105972290039,-0.19994640350341797,0.9839887619018555
1750064034561309200,12.89530908203125,0.9574965238571167,-0.35917186737060547,0.9311174154281616
1750064034577269800,12.911269775390625,0.6795666217803955,-0.4932403564453125,0.9250830411911011
1750064034593322000,12.927322021484375,0.3958040475845337,-0.6632175445556641,0.567657470703125
1750064034609313300,12.943313232421875,0.3429468870162964,-0.8547401428222656,0.22165703773498535
1750064034625304600,12.9593046875,-0.017426062375307083,-0.7331619262695312,0.08733296394348145
1750064034641234700,12.975234619140625,-0.23317280411720276,-0.27991485595703125,-0.2508430480957031
1750064034657256400,12.99125634765625,-0.45830872654914856,0.2363433837890625,-0.6547749042510986
1750064034673278200,13.0072783203125,-0.9444906711578369,0.4230079650878906,-0.9779706001281738
1750064034689238800,13.02323876953125,-1.1050748825073242,0.4794654846191406,-1.0859565734863281
1750064034713195000,13.047195068359375,-0.23661942780017853,0.5039348602294922,-1.0470466613769531
1750064034737182000,13.071181884765625,0.33665478229522705,0.27817630767822266,-1.2737774848937988
1750064034753173200,13.08717333984375,0.30545711517333984,-0.11351871490478516,-1.419891119003296
1750064034769164300,13.103164306640625,0.19178222119808197,-0.27545166015625,-1.6637890338897705
1750064034785094400,13.119094482421875,-0.047025371342897415,-0.05128192901611328,-1.4307432174682617
1750064034801116200,13.1351162109375,-0.3046034276485443,0.27112483978271484,-0.8027842044830322
1750064034817107500,13.151107421875,-0.4136585593223572,0.6277999877929688,-0.36538100242614746
1750064034833129200,13.167129150390625,-0.36802929639816284,0.8967914581298828,-0.14552617073059082
1750064034849120500,13.18312060546875,-0.2775181233882904,0.9332218170166016,0.07255959510803223
1750064034865081000,13.1990810546875,-0.09559914469718933,0.7899627685546875,0.12762141227722168
1750064034889098500,13.223098388671875,0.2274450659751892,0.27913379669189453,-0.21677756309509277
1750064034905059000,13.23905908203125,0.4479711651802063,0.053557395935058594,-0.048693180084228516
1750064034921080800,13.255080810546875,0.5446253418922424,0.0937652587890625,0.2835221290588379
1750064034945037000,13.279037109375,0.39672553539276123,0.5386772155761719,0.22537708282470703
1750064034960998000,13.294997802734375,0.2842237651348114,0.5346269607543945,0.013759851455688477
1750064034976989000,13.310989013671875,0.27386370301246643,0.1813974380493164,-0.08224725723266602
1750064034993010700,13.3270107421875,0.3545195460319519,-0.22495269775390625,-0.20344328880310059
1750064035009002000,13.343001953125,0.48054540157318115,-0.4664297103881836,-0.3170645236968994
1750064035024962600,13.358962646484375,0.7422550916671753,-0.37307071685791016,-0.5409116744995117
1750064035040984300,13.374984375,1.1529332399368286,-0.21186161041259766,-0.504807710647583
1750064035056945200,13.390945068359375,2.0880093574523926,0.01177978515625,-0.5772755146026611
1750064035072936200,13.406936279296875,2.7225265502929688,0.13750362396240234,-0.47622036933898926
1750064035088927500,13.422927490234375,2.5584347248077393,0.2279958724975586,-0.17589664459228516
1750064035104888300,13.438888427734375,2.221498966217041,0.2342367172241211,-0.26000356674194336
1750064035120940500,13.4549404296875,2.0054080486297607,0.025289535522460938,-0.07379651069641113
1750064035136931600,13.470931640625,1.9194605350494385,-0.16259288787841797,0.37148451805114746
1750064035152923000,13.4869228515625,1.6413671970367432,-0.15429019927978516,0.6600275039672852
1750064035168914200,13.5029140625,1.2867180109024048,-0.06762123107910156,0.8179481029510498
1750064035184905200,13.5189052734375,0.9759160876274109,-0.0008001327514648438,0.8494734764099121
1750064035200927000,13.534927001953125,0.5775725245475769,-0.047911643981933594,0.8954057693481445
1750064035216887800,13.5508876953125,0.21639293432235718,-0.19728660583496094,0.9832619428634644
1750064035232818000,13.56681787109375,-0.05862987041473389,-0.5197315216064453,1.0771045684814453
1750064035248778500,13.582778564453125,-0.4012269377708435,-0.6740131378173828,0.49506962299346924
1750064035264769800,13.598769775390625,-0.5247621536254883,-0.4595022201538086,0.3606830835342407
1750064035280700000,13.614699951171875,-0.6435860395431519,0.17879962921142578,0.40691375732421875
1750064035296660700,13.63066064453125,-0.7921832203865051,0.9334640502929688,0.377155065536499
1750064035312651800,13.64665185546875,-0.9703852534294128,1.6599760055541992,0.27271485328674316
1750064035328582100,13.66258203125,-0.9771715402603149,1.8595342636108398,0.12509703636169434
1750064035344604000,13.67860400390625,-0.574007511138916,0.6148777008056641,-0.4646952152252197
1750064035360656100,13.69465625,-0.005419731140136719,-1.6134843826293945,-0.9426709413528442
1750064035376616700,13.71061669921875,0.3762590289115906,-3.2080631256103516,-1.5447914600372314
1750064035392638500,13.726638427734375,0.5094698667526245,-3.365159034729004,-1.67011559009552
1750064035408629800,13.742629638671875,0.3008382320404053,-1.1484498977661133,-1.0513367652893066
1750064035424559900,13.758559814453125,-0.12223172187805176,0.9555816650390625,-0.5120242834091187
1750064035440581600,13.77458154296875,-0.4817553460597992,1.7809362411499023,-0.4234384298324585
1750064035456572700,13.79057275390625,-0.7028811573982239,1.7128405570983887,-0.9243700504302979
1750064035472594400,13.806594482421875,-0.7847054600715637,1.0270366668701172,-1.6506181955337524
1750064035488555300,13.82255517578125,-0.6444008946418762,0.010819435119628906,-2.179286241531372
1750064035504515800,13.838515869140625,-0.28554362058639526,-0.6904792785644531,-2.66890287399292
1750064035520446000,13.854446044921875,0.19877779483795166,-0.7053356170654297,-3.2108304500579834
1750064035536448800,13.87044873046875,0.6850023865699768,-0.023435592651367188,-3.51593279838562
1750064035552409300,13.886409423828125,0.9273715019226074,0.8507823944091797,-3.5982589721679688
1750064035568431000,13.90243115234375,1.026404619216919,1.6467704772949219,-3.5350658893585205
1750064035584452900,13.918452880859375,1.2555571794509888,1.9051365852355957,-3.560194492340088
1750064035600444200,13.934444091796875,1.4605717658996582,1.677809715270996,-3.6664071083068848
1750064035616404700,13.95040478515625,1.3750853538513184,0.995570182800293,-3.487410068511963
1750064035632334800,13.9663349609375,1.1027590036392212,0.5405387878417969,-3.2075681686401367
1750064035648326100,13.982326171875,0.6659469604492188,0.23836517333984375,-3.007577896118164
1750064035664348000,13.998347900390625,0.27284371852874756,0.11502361297607422,-2.689577341079712
1750064035688273700,14.022273681640625,-0.10925474762916565,0.11610603332519531,-1.8719844818115234
1750064035704265000,14.038264892578125,-0.06815290451049805,0.14470195770263672,-1.4740684032440186
1750064035720195000,14.054195068359375,-0.013932645320892334,0.11835479736328125,-1.1950689554214478
1750064035736186400,14.070186279296875,0.033445775508880615,-0.022974014282226562,-0.8830617666244507
1750064035752208000,14.086207763671876,-0.06520870327949524,-0.24983692169189453,-0.1839601993560791
1750064035768138200,14.10213818359375,-0.22281157970428467,-0.4450263977050781,0.3474907875061035
1750064035792064000,14.12606396484375,-0.5774836540222168,-0.42046356201171875,0.6794867515563965
1750064035808177200,14.14217724609375,-0.7972931861877441,-0.28992652893066406,0.8565958738327026
1750064035824138000,14.158137939453125,-0.959222674369812,-0.206451416015625,0.9420179128646851
1750064035840129000,14.17412890625,-1.0537141561508179,-0.14616107940673828,0.9750410318374634
1750064035856120300,14.190120361328125,-1.0433131456375122,-0.15726661682128906,1.0759340524673462
1750064035872142000,14.20614208984375,-0.9868476986885071,-0.22101306915283203,1.2321441173553467
1750064035888133400,14.22213330078125,-0.8721692562103271,-0.37030982971191406,1.3476722240447998
1750064035904094000,14.238093994140625,-0.7518845796585083,-0.46956443786621094,1.4002965688705444
1750064035920085200,14.254085205078125,-0.692183256149292,-0.5143938064575195,1.4570978879928589
1750064035936045800,14.2700458984375,-0.6680524349212646,-0.5145969390869141,1.5636405944824219
1750064035952006700,14.286006591796875,-0.7139403223991394,-0.41902923583984375,1.554457664489746
1750064035967967200,14.30196728515625,-0.7652923464775085,-0.3447551727294922,1.3790111541748047
1750064035983958500,14.31795849609375,-0.8217927813529968,-0.2682209014892578,1.2500437498092651
1750064035999980300,14.333980224609375,-0.7996382713317871,-0.17119312286376953,1.1159218549728394
1750064036015940900,14.34994091796875,-0.6586527228355408,-0.08296012878417969,0.9039134979248047
1750064036031962600,14.365962646484375,-0.5240945816040039,-0.07388496398925781,0.6825048923492432
1750064036047954000,14.381953857421875,-0.38859307765960693,-0.08730316162109375,0.5196166038513184
1750064036079936300,14.413936279296875,-0.23702597618103027,-0.11380290985107422,-0.027158260345458984
1750064036095927600,14.429927490234375,0.0008499026298522949,0.0032072067260742188,-0.4272739887237549
1750064036111949300,14.44594921875,0.11633095145225525,0.09124374389648438,-0.5525827407836914
1750064036143840000,14.477840087890625,0.2183002382516861,0.0893106460571289,-0.6478700637817383
1750064036159861800,14.49386181640625,0.21778234839439392,0.07017230987548828,-0.6323862075805664
1750064036175822600,14.509822509765625,0.23167234659194946,0.1407308578491211,-0.5562679767608643
1750064036191844000,14.525843994140626,0.28513917326927185,0.20903396606445312,-0.6085066795349121
1750064036207835400,14.54183544921875,0.29780223965644836,0.2665853500366211,-0.6082274913787842
1750064036223765500,14.557765625,0.37480130791664124,0.26053333282470703,-0.6211259365081787
1750064036239817700,14.573817626953126,0.3801993727684021,0.21035480499267578,-0.5153548717498779
1750064036255778600,14.589778564453125,0.452076256275177,0.12151813507080078,-0.362626314163208
1750064036271708700,14.605708740234375,0.47441139817237854,0.0450439453125,-0.19217514991760254
1750064036295695600,14.629695556640625,0.1320960819721222,-0.11108112335205078,0.188828706741333
1750064036311625700,14.645625732421875,-0.004038512706756592,-0.09551048278808594,0.3063206672668457
1750064036327586300,14.66158642578125,-0.11881518363952637,-0.0633535385131836,0.41361474990844727
1750064036343608000,14.677608154296875,-0.21407121419906616,-0.11694145202636719,0.48050570487976074
1750064036359599400,14.693599365234375,-0.24086689949035645,-0.1159353256225586,0.45551395416259766
1750064036375560000,14.709559814453126,-0.23954936861991882,-0.07400894165039062,0.34270381927490234
1750064036391520800,14.725520751953125,-0.252353310585022,-0.026764869689941406,0.3470625877380371
1750064036407512000,14.741511962890625,-0.3116185665130615,-0.05730438232421875,0.4084610939025879
1750064036423503000,14.757503173828125,-0.4141343832015991,-0.10329437255859375,0.4152390956878662
1750064036439464000,14.7734638671875,-0.48529288172721863,-0.13364505767822266,0.41794514656066895
1750064036455424500,14.789424560546875,-0.5570926070213318,-0.15095901489257812,0.3985438346862793
1750064036471385300,14.80538525390625,-0.5734264850616455,-0.061908721923828125,0.4125809669494629
1750064036487376400,14.82137646484375,-0.5724427700042725,0.03075122833251953,0.41400742530822754
1750064036503367700,14.83736767578125,-0.5834797024726868,0.010028839111328125,0.34415602684020996
1750064036519297800,14.8532978515625,-0.26841944456100464,0.06208324432373047,0.02788400650024414
1750064036535289000,14.8692890625,-0.15475568175315857,0.052779197692871094,-0.11315298080444336
1750064036551310800,14.885310791015625,-0.10103051364421844,0.039412498474121094,-0.22342205047607422
1750064036567271400,14.901271484375,-0.08281214535236359,0.02525806427001953,-0.30163049697875977
1750064036583232300,14.917232177734375,-0.02350478619337082,0.024881362915039062,-0.3077070713043213
1750064036599254000,14.93325390625,0.0365033894777298,0.09845161437988281,-0.2547323703765869
1750064036615214600,14.949214599609375,0.09573591500520706,0.13794231414794922,-0.32092881202697754
1750064036631266800,14.965266845703125,0.12385434657335281,0.12998199462890625,-0.41107988357543945
1750064036647258000,14.981258056640625,0.1504845768213272,0.10500335693359375,-0.41022729873657227
1750064036663249200,14.997249267578125,0.18654489517211914,0.11824512481689453,-0.38142848014831543
1750064036679179500,15.013179443359375,0.21289749443531036,0.15888690948486328,-0.26194119453430176
1750064036695170600,15.029170654296875,0.2049725353717804,0.32124805450439453,-0.18450450897216797
1750064036711192300,15.0451923828125,0.2456061840057373,0.2779541015625,-0.053133487701416016
1750064036727153200,15.061153076171875,0.3384995460510254,0.2107219696044922,0.015695571899414062
1750064036743083300,15.077083251953125,0.426639586687088,0.12909984588623047,0.10814785957336426
1750064036759135500,15.093135498046875,0.4300456643104553,0.052351951599121094,0.19020342826843262
1750064036775096000,15.109095947265626,0.44707098603248596,-0.07413673400878906,0.30808186531066895
1750064036791117800,15.125117919921875,0.3416057229042053,-0.19661617279052734,0.4413785934448242
1750064036807109000,15.141109130859375,0.20720890164375305,-0.2518339157104492,0.558220624923706
1750064036823100400,15.157100341796875,0.1441284716129303,-0.23906898498535156,0.6349749565124512
1750064036839061000,15.17306103515625,0.12565818428993225,-0.26410961151123047,0.6637084484100342
1750064036855021800,15.189021728515625,0.10818389058113098,-0.23842430114746094,0.6995818614959717
1750064036870921500,15.20492138671875,0.07340073585510254,-0.15291976928710938,0.6289875507354736
1750064036886912500,15.22091259765625,0.012663096189498901,-0.11370086669921875,0.5642693042755127
1750064036902843000,15.2368427734375,-0.08874677121639252,-0.020972251892089844,0.4913315773010254
1750064036918895000,15.25289501953125,-0.1798837035894394,0.05262947082519531,0.3391420841217041
1750064036934855700,15.268855712890625,-0.17458674311637878,0.015273094177246094,0.14709901809692383
1750064036950785800,15.284785888671875,-0.13056056201457977,-0.06424427032470703,0.016974925994873047
1750064036966746600,15.30074658203125,-0.09481646120548248,-0.061865806579589844,-0.04388713836669922
1750064036982798800,15.316798828125,-0.024608373641967773,0.06529808044433594,-0.1441493034362793
1750064036998729000,15.33272900390625,-0.03533434867858887,0.11825942993164062,-0.23914599418640137
1750064037014720300,15.34872021484375,-0.0568774938583374,0.16183853149414062,-0.3181774616241455
1750064037030742000,15.364741943359375,-0.049194514751434326,0.28666114807128906,-0.38426637649536133
1750064037046733000,15.380733154296875,-0.02129882574081421,0.32795143127441406,-0.43393731117248535
1750064037062694000,15.39669384765625,0.04144084453582764,0.23118305206298828,-0.4590604305267334
1750064037078654500,15.412654541015625,0.12968555092811584,0.06659984588623047,-0.5368378162384033
1750064037094645800,15.428645751953125,0.1985468864440918,-0.04867076873779297,-0.5378262996673584
1750064037110667500,15.44466748046875,0.2825666666030884,-0.0800628662109375,-0.4324502944946289
1750064037126658600,15.460658447265626,0.3003033697605133,-0.014169692993164062,-0.2144775390625
1750064037142589000,15.4765888671875,0.2297094762325287,0.013339042663574219,-0.011339664459228516
1750064037158610700,15.492610595703125,0.11961480975151062,-0.0815267562866211,0.1656656265258789
1750064037174571300,15.5085712890625,0.013597160577774048,-0.18973731994628906,0.36283206939697266
1750064037190501400,15.52450146484375,-0.051544904708862305,-0.2191638946533203,0.5312521457672119
1750064037206523100,15.540523193359375,-0.12176057696342468,-0.23089122772216797,0.6843061447143555
1750064037222514400,15.556514404296875,-0.158468559384346,-0.21962833404541016,0.907078742980957
1750064037238444500,15.572444580078125,-0.16615734994411469,-0.013165473937988281,0.7721340656280518
1750064037254405400,15.5884052734375,-0.15353870391845703,0.18256473541259766,0.5641260147094727
1750064037270427000,15.604427001953125,-0.18319560587406158,0.04070758819580078,0.6411042213439941
1750064037286418200,15.620418212890625,-0.1877460926771164,-0.09631919860839844,0.5997714996337891
1750064037302348300,15.636348388671875,-0.16509294509887695,-0.14962100982666016,0.5051803588867188
1750064037318370000,15.6523701171875,-0.08798281848430634,-0.12682247161865234,0.4089810848236084
1750064037334361300,15.668361328125,-0.02563011646270752,-0.023286819458007812,0.29695940017700195
1750064037350383000,15.684383056640625,0.023361563682556152,0.05279731750488281,0.14630508422851562
1750064037366374100,15.7003740234375,0.02952536940574646,0.03424644470214844,-0.07799744606018066
1750064037382335000,15.7163349609375,0.004222005605697632,-0.052817344665527344,-0.29744887351989746
1750064037398326300,15.732326171875,0.013956040143966675,0.05022621154785156,-0.4499528408050537
1750064037414317300,15.7483173828125,0.08195114135742188,0.22701072692871094,-0.5136833190917969
1750064037430247400,15.764247314453126,0.11611762642860413,0.28858375549316406,-0.5000829696655273
1750064037446208300,15.780208251953125,0.10643792152404785,0.2980356216430664,-0.47328639030456543
1750064037462199600,15.796199462890625,0.12639117240905762,0.2649517059326172,-0.5375320911407471
1750064037478221000,15.812220947265626,0.09201544523239136,0.14166927337646484,-0.5670232772827148
1750064037494182000,15.828181884765625,0.08580490946769714,0.13907432556152344,-0.6075267791748047
1750064037510081500,15.84408154296875,0.12814122438430786,0.21943950653076172,-0.6085026264190674
1750064037526072800,15.86007275390625,0.12717032432556152,0.1484203338623047,-0.4516608715057373
1750064037542125000,15.876125,0.08665359020233154,0.07688331604003906,-0.31136631965637207
1750064037558116000,15.8921162109375,0.056799739599227905,0.05063343048095703,-0.15253162384033203
1750064037574107400,15.908107421875,-0.005477547645568848,-0.02471637725830078,0.04553103446960449
1750064037590068200,15.924068115234375,-0.060941070318222046,-0.11483478546142578,0.24183893203735352
1750064037606028800,15.94002880859375,-0.14421090483665466,-0.13058757781982422,0.312619686126709
1750064037622020000,15.95602001953125,-0.15223638713359833,-0.09854316711425781,0.3909471035003662
1750064037637980700,15.971980712890625,-0.14907294511795044,-0.11470317840576172,0.48331713676452637
1750064037653910800,15.987910888671875,-0.13302139937877655,-0.11343765258789062,0.49262523651123047
1750064037669902000,16.003902099609373,-0.13075987994670868,-0.025168418884277344,0.41965746879577637
1750064037685893400,16.019893310546873,-0.1624240130186081,-0.032591819763183594,0.4542229175567627
1750064037701823500,16.035823486328123,-0.19134089350700378,-0.03539466857910156,0.563957929611206
1750064037717845200,16.05184521484375,-0.20399931073188782,0.024312973022460938,0.5497684478759766
1750064037733805800,16.067805908203123,-0.17332769930362701,0.02427196502685547,0.4649689197540283
1750064037749797000,16.083797119140623,-0.11260521411895752,-0.012246131896972656,0.3404567241668701
1750064037765757700,16.0997578125,-0.01866261661052704,0.04033088684082031,0.047258615493774414
1750064037781688000,16.11568798828125,0.02884441614151001,0.09069252014160156,-0.12570905685424805
1750064037797709800,16.131709716796873,0.05489127337932587,0.08937740325927734,-0.24345111846923828
1750064037813670400,16.14767041015625,0.08080080151557922,0.1279458999633789,-0.3853280544281006
1750064037829631000,16.163630859375,0.10668869316577911,0.16781234741210938,-0.439406156539917
1750064037845622300,16.179622314453123,0.13465455174446106,0.15106582641601562,-0.43895602226257324
1750064037861674500,16.195674560546873,0.14441314339637756,0.10210132598876953,-0.45818018913269043
1750064037877604600,16.2116044921875,0.16125908493995667,0.1662158966064453,-0.5424423217773438
1750064037893596000,16.227595947265623,0.18015488982200623,0.192779541015625,-0.5479292869567871
1750064037909617700,16.24361767578125,0.14516541361808777,0.09950542449951172,-0.4850001335144043
1750064037925578200,16.259578125,0.13186636567115784,0.0838155746459961,-0.4510509967803955
1750064037941569500,16.275569580078123,0.09661445021629333,0.0876932144165039,-0.3036036491394043
1750064037957530400,16.2915302734375,0.08094868063926697,0.07866573333740234,-0.18667817115783691
1750064037973521400,16.307521484375,0.010696738958358765,0.011366844177246094,0.03867673873901367
1750064037989543200,16.323543212890623,-0.04482582211494446,-0.023488998413085938,0.16557860374450684
1750064038005504000,16.33950390625,-0.05368015170097351,-0.051810264587402344,0.3054189682006836
1750064038021434000,16.35543408203125,-0.07568329572677612,-0.05861854553222656,0.39345455169677734
1750064038045420800,16.3794208984375,-0.12610183656215668,0.06444072723388672,0.3799760341644287
1750064038061412000,16.395412109375,-0.15906420350074768,-0.010896682739257812,0.43563032150268555
1750064038085368300,16.419368408203123,-0.17035365104675293,-0.034366607666015625,0.40402674674987793
1750064038101298700,16.435298583984373,-0.10107025504112244,0.01807117462158203,0.40087246894836426
1750064038117320200,16.4513203125,-0.0754220187664032,-0.038611412048339844,0.32489609718322754
1750064038133311500,16.4673115234375,-0.04327744245529175,-0.04928779602050781,0.20616841316223145
1750064038149241600,16.48324169921875,-0.06094634532928467,-0.03413105010986328,0.12710285186767578
1750064038165233000,16.49923291015625,-0.0677589476108551,-0.017423629760742188,0.02681255340576172
1750064038181254700,16.515254638671873,-0.06742227077484131,0.0178680419921875,-0.023669004440307617
1750064038197246000,16.531245849609373,-0.047350943088531494,0.06717300415039062,-0.15909838676452637
1750064038213237000,16.547237060546873,-0.007577747106552124,0.0513916015625,-0.21630859375
1750064038229228300,16.563228271484373,0.024639934301376343,0.05397510528564453,-0.26836705207824707
1750064038245280500,16.579280517578123,0.04588380455970764,0.10797119140625,-0.356731653213501
1750064038261241000,16.595240966796876,0.014746904373168945,0.20758724212646484,-0.36768007278442383
1750064038277262800,16.611262939453123,0.0061994194984436035,0.13275527954101562,-0.3305821418762207
1750064038293223700,16.6272236328125,0.03037935495376587,0.09026336669921875,-0.342055082321167
1750064038309123300,16.643123291015623,0.022444456815719604,0.1139383316040039,-0.2740156650543213
1750064038325114400,16.6591142578125,0.025614917278289795,0.10866737365722656,-0.12643194198608398
1750064038341136100,16.67513623046875,0.006204694509506226,0.09695053100585938,-0.04397010803222656
1750064038357035800,16.691035888671873,-0.035022199153900146,0.08854866027832031,0.004010438919067383
1750064038373057500,16.7070576171875,-0.06915244460105896,0.04720115661621094,0.05708193778991699
1750064038389048800,16.723048828125,-0.0388110876083374,-0.008318901062011719,0.15489792823791504
1750064038405040000,16.7390400390625,-0.0487000048160553,-0.07062435150146484,0.23459339141845703
1750064038421061600,16.7550615234375,-0.07409283518791199,-0.02157115936279297,0.22877836227416992
1750064038437053000,16.771052978515623,-0.09309795498847961,-0.012127876281738281,0.2792191505432129
1750064038453013800,16.787013671875,-0.08169102668762207,-0.09218311309814453,0.31278228759765625
1750064038468944000,16.80294384765625,-0.09509530663490295,-0.041408538818359375,0.2094745635986328
1750064038484935200,16.81893505859375,-0.10769641399383545,0.017137527465820312,0.16402411460876465
1750064038500987400,16.8349873046875,-0.08849367499351501,0.044608116149902344,0.10167455673217773
1750064038516978400,16.850978515625,-0.0759153664112091,0.08858203887939453,0.02826833724975586
1750064038532969700,16.8669697265625,-0.027525722980499268,0.10825634002685547,-0.06547689437866211
1750064038548961000,16.8829609375,-0.025315076112747192,0.08681106567382812,-0.12675118446350098
1750064038564921600,16.898921630859373,-0.01939210295677185,0.081512451171875,-0.2075502872467041
1750064038580913000,16.914912841796873,-0.016738951206207275,0.06081104278564453,-0.2344815731048584
1750064038596873500,16.93087353515625,-0.024578571319580078,0.08208751678466797,-0.24077701568603516
1750064038612834300,16.946834228515623,-0.009124964475631714,0.05209159851074219,-0.26036500930786133
1750064038628856000,16.96285595703125,-0.03254851698875427,0.016448974609375,-0.20515727996826172
1750064038644847000,16.97884716796875,-0.03261515498161316,0.045185089111328125,-0.14431309700012207
1750064038660808000,16.994807861328123,-0.08608371019363403,0.06202983856201172,-0.08867025375366211
1750064038676860200,17.010860107421873,-0.08197861909866333,0.10054874420166016,-0.04306340217590332
1750064038692820700,17.02682080078125,-0.08440262079238892,0.12482738494873047,0.045264482498168945
1750064038708812000,17.04281201171875,-0.08654606342315674,0.05845832824707031,0.0677947998046875
1750064038724803300,17.05880322265625,-0.06696808338165283,0.03320026397705078,0.0697486400604248
1750064038740733400,17.0747333984375,-0.0918552577495575,0.04399585723876953,0.10726189613342285
1750064038756755200,17.090755126953123,-0.06542143225669861,0.045406341552734375,0.14661931991577148
1750064038772715800,17.1067158203125,-0.08408522605895996,-0.03170585632324219,0.11490225791931152
1750064038796672000,17.130672119140623,-0.061015307903289795,-0.0027971267700195312,0.06660008430480957
1750064038812663300,17.146663330078123,-0.08894550800323486,0.019039154052734375,0.09682440757751465
1750064038828685000,17.16268505859375,-0.08513620495796204,0.0005578994750976562,0.05875062942504883
1750064038844645600,17.178645751953123,-0.05217558145523071,-0.007970809936523438,0.005049943923950195
1750064038860606500,17.1946064453125,-0.062146395444869995,0.029071807861328125,-0.010613679885864258
1750064038876628200,17.210628173828123,-0.05290156602859497,0.05172252655029297,-0.042940616607666016
1750064038892588800,17.2265888671875,-0.021970421075820923,0.08380413055419922,-0.09869050979614258
1750064038908610600,17.242610595703123,-0.036464810371398926,0.10099220275878906,-0.07356834411621094
1750064038924601900,17.258601806640623,0.007353842258453369,0.02904796600341797,-0.041931867599487305
1750064038940562400,17.2745625,-0.001288294792175293,0.00731658935546875,-0.07739114761352539
1750064038956553700,17.2905537109375,-0.038208454847335815,0.04992103576660156,-0.04737424850463867
1750064038972514300,17.306514404296873,-0.06416940689086914,0.10426044464111328,0.009664535522460938
1750064038988536000,17.3225361328125,-0.077938973903656,0.04610633850097656,0.04266762733459473
1750064039004527400,17.33852734375,-0.048123687505722046,0.040988922119140625,0.05051279067993164
1750064039020457500,17.35445751953125,-0.07355445623397827,0.1055002212524414,0.06960248947143555
1750064039036479200,17.370479248046873,-0.12768763303756714,0.10319232940673828,0.09031963348388672
1750064039052439800,17.386439697265626,-0.1210813820362091,0.07966136932373047,0.07410550117492676
1750064039068461600,17.402461669921873,-0.10819032788276672,0.10675048828125,0.056887149810791016
1750064039084422400,17.41842236328125,-0.10667991638183594,0.023654937744140625,0.023173093795776367
1750064039100352500,17.4343525390625,-0.0817062258720398,-0.07614326477050781,-0.04193425178527832
1750064039116374300,17.450374267578123,-0.07031738758087158,-0.08981990814208984,-0.06872224807739258
1750064039132334800,17.4663349609375,-0.1129477322101593,-0.050955772399902344,-0.09284687042236328
1750064039148265200,17.48226513671875,-0.13634559512138367,-0.017023086547851562,-0.13322734832763672
1750064039164256300,17.49825634765625,-0.1678173989057541,0.05986595153808594,-0.10825943946838379
1750064039180278000,17.514278076171873,-0.15179099142551422,0.0955190658569336,-0.09992074966430664
1750064039196269300,17.530269287109373,-0.12577217817306519,0.0781240463256836,-0.09942483901977539
1750064039212199400,17.546199462890623,-0.12794190645217896,0.07730674743652344,-0.09821939468383789
1750064039228129500,17.562129638671873,-0.14587678015232086,0.1411600112915039,-0.12844109535217285
1750064039244090400,17.57809033203125,-0.1476087123155594,0.11169242858886719,-0.11106657981872559
1750064039260112100,17.594112060546873,-0.10913142561912537,0.026752471923828125,-0.15186119079589844
1750064039276103200,17.610103271484373,-0.0507926344871521,0.02042865753173828,-0.14092779159545898
1750064039292064000,17.62606396484375,-0.00552782416343689,0.0663156509399414,-0.06391215324401855
1750064039308024600,17.642024658203123,0.006191849708557129,0.04031944274902344,0.024921655654907227
1750064039323985400,17.6579853515625,0.0035322606563568115,0.01693439483642578,0.06000471115112305
1750064039339946000,17.673946044921873,-0.034074097871780396,0.029564857482910156,0.11606788635253906
1750064039355998200,17.689998291015623,-0.01916062831878662,0.023271560668945312,0.14736080169677734
1750064039371959000,17.705958984375,0.003925055265426636,0.053253173828125,0.19428706169128418
1750064039387980800,17.721980712890623,0.008723407983779907,0.1268625259399414,0.23709797859191895
1750064039403971800,17.737971923828123,0.011050969362258911,0.11473369598388672,0.26875734329223633
1750064039419902200,17.753902099609373,0.0476478636264801,-0.014086723327636719,0.23101282119750977
1750064039435923700,17.769923828125,0.05156886577606201,-0.10148048400878906,0.24083209037780762
1750064039451884500,17.785884521484373,0.013209015130996704,0.0009613037109375,0.24801969528198242
1750064039467845000,17.80184521484375,-0.023511230945587158,-0.02774810791015625,0.207747220993042
1750064039483836400,17.81783642578125,-0.05286824703216553,-0.027215957641601562,0.12737035751342773
1750064039499827700,17.83382763671875,-0.09851941466331482,0.011409759521484375,0.05253744125366211
1750064039515788300,17.849788330078123,-0.07670506834983826,-0.0005588531494140625,-0.0020241737365722656
1750064039531749000,17.8657490234375,-0.08349543809890747,-0.017538070678710938,-0.08215761184692383
1750064039547770600,17.8817705078125,-0.12639349699020386,0.05153179168701172,-0.11396527290344238
1750064039571696600,17.905696533203123,-0.12444880604743958,0.1857757568359375,-0.16933679580688477
1750064039587718100,17.92171826171875,-0.1548018753528595,0.10764312744140625,-0.24932169914245605
1750064039603679000,17.937678955078123,-0.12746202945709229,0.035439491271972656,-0.33879995346069336
1750064039619609000,17.953609130859373,-0.08877953886985779,-0.0048809051513671875,-0.2977116107940674
1750064039635661300,17.969661376953123,-0.09617254137992859,-0.05570507049560547,-0.21275782585144043
1750064039651622100,17.9856220703125,-0.11005672812461853,0.006137847900390625,-0.15972399711608887
1750064039667644000,18.001643798828123,-0.16772155463695526,0.14243125915527344,-0.11241912841796875
1750064039683635000,18.017635009765623,-0.18804186582565308,0.1493844985961914,-0.05517935752868652
1750064039699626200,18.033626220703123,-0.16106851398944855,0.10641956329345703,0.02498006820678711
1750064039715586800,18.0495869140625,-0.12332594394683838,0.09997367858886719,0.12233614921569824
1750064039731578000,18.065578125,-0.10243690013885498,0.087127685546875,0.16426658630371094
1750064039747600000,18.081599853515623,-0.11686637997627258,0.0873565673828125,0.11147403717041016
1750064039763591200,18.097591064453123,-0.10082417726516724,0.1503620147705078,0.06666111946105957
1750064039779521300,18.113521240234373,-0.008764326572418213,0.09829521179199219,0.005834817886352539
1750064039795512300,18.12951220703125,0.08604574203491211,-0.02112293243408203,-0.03712320327758789
1750064039811473200,18.14547314453125,0.1882493793964386,-0.07871055603027344,-0.014290571212768555
1750064039827464400,18.16146435546875,0.17896834015846252,-0.06950664520263672,0.03492927551269531
1750064039843394600,18.17739453125,0.10108780860900879,-0.007493019104003906,0.051714420318603516
1750064039859385600,18.193385498046876,-0.01790916919708252,-0.005059242248535156,-0.04298090934753418
1750064039875346400,18.209346435546873,-0.044919341802597046,0.07384490966796875,-0.04848480224609375
1750064039891307000,18.22530712890625,-0.0008201003074645996,0.06363964080810547,0.034236907958984375
1750064039907237400,18.2412373046875,-0.006197690963745117,0.0052280426025390625,0.10859823226928711
1750064039923198000,18.257197998046873,-0.020368844270706177,0.02357959747314453,0.10318851470947266
1750064039939189200,18.273189208984373,-0.0986626148223877,0.025270462036132812,0.14502787590026855
1750064039955149800,18.28914990234375,-0.15335634350776672,-0.0013875961303710938,0.15433788299560547
1750064039971141000,18.30514111328125,-0.19864100217819214,-0.0033817291259765625,0.1279463768005371
1750064039987163000,18.321162841796873,-0.19928397238254547,0.02392864227294922,0.14325189590454102
1750064040003093000,18.337093017578123,-0.21997956931591034,0.04447746276855469,0.13854050636291504
1750064040019053600,18.353053466796876,-0.20367315411567688,0.03452301025390625,0.11543774604797363
1750064040035044900,18.369044921875,-0.17058393359184265,0.032291412353515625,0.01657414436340332
1750064040051005700,18.385005615234373,-0.16064882278442383,0.04894065856933594,-0.05013680458068848
1750064040066935800,18.400935791015623,-0.0907762348651886,0.024237632751464844,-0.07867670059204102
1750064040082927000,18.416927001953123,-0.07454174757003784,0.030259132385253906,-0.11316323280334473
1750064040098918100,18.432918212890623,-0.08824992179870605,0.10055160522460938,-0.1393446922302246
1750064040114879000,18.44887890625,-0.04224398732185364,0.060256004333496094,-0.13045001029968262
1750064040130839600,18.464839599609373,-0.036769360303878784,0.07958316802978516,-0.14465928077697754
1750064040146800400,18.48080029296875,0.01196107268333435,0.053058624267578125,-0.20067548751831055
1750064040162791400,18.49679150390625,0.05959084630012512,-0.014952659606933594,-0.18466687202453613
1750064040178782700,18.51278271484375,0.08074644207954407,0.010003089904785156,-0.12209296226501465
1750064040194743300,18.528743408203123,0.05088144540786743,0.04208183288574219,-0.05256485939025879
1750064040210704100,18.5447041015625,0.036312252283096313,0.10051631927490234,-0.021612167358398438
1750064040226726000,18.560725830078123,0.04034018516540527,0.06312751770019531,0.026206493377685547
1750064040242686500,18.5766865234375,0.06046879291534424,0.0162506103515625,0.05924701690673828
1750064040258677800,18.592677734375,0.036571770906448364,0.04835987091064453,0.12813639640808105
1750064040274638300,18.608638427734373,-0.006375402212142944,0.037253379821777344,0.17316699028015137
1750064040290629600,18.624629638671873,-0.09325635433197021,-0.004428863525390625,0.20896601676940918
1750064040306651400,18.6406513671875,-0.1456272006034851,0.04819202423095703,0.19856858253479004
1750064040322612000,18.656612060546873,-0.13564357161521912,0.036922454833984375,0.2122516632080078
1750064040338633700,18.6726337890625,-0.1281096637248993,-0.02379894256591797,0.18988895416259766
1750064040354563800,18.688563720703126,-0.12864509224891663,0.0024280548095703125,0.13156986236572266
1750064040370585600,18.704585693359373,-0.15697452425956726,-0.00220489501953125,0.08920431137084961
1750064040386577000,18.720576904296873,-0.14613047242164612,-0.049704551696777344,0.01500701904296875
1750064040402568200,18.736568115234373,-0.14400634169578552,-0.013347625732421875,-0.07846212387084961
1750064040418590000,18.75258984375,-0.13169628381729126,0.07297897338867188,-0.1731882095336914
1750064040434550500,18.768550537109373,-0.10684886574745178,0.10826492309570312,-0.1789565086364746
1750064040450541800,18.784541748046873,-0.10799744725227356,0.09974861145019531,-0.22049188613891602
1750064040466563600,18.8005634765625,-0.1104956865310669,0.15260601043701172,-0.31622862815856934
1750064040482493700,18.81649365234375,-0.09053954482078552,0.13581466674804688,-0.2681727409362793
1750064040498484700,18.832484619140626,-0.05861470103263855,0.061656951904296875,-0.23282337188720703
1750064040514445600,18.848445556640623,-0.03488016128540039,0.061183929443359375,-0.2364647388458252
1750064040530406100,18.86440625,-0.029715925455093384,0.09373664855957031,-0.12855100631713867
1750064040546428000,18.880427978515623,-0.02906358242034912,0.04985237121582031,-0.03117203712463379
1750064040562419200,18.896419189453123,-0.06776010990142822,0.059173583984375,-0.0028753280639648438
1750064040578349300,18.912349365234373,-0.05650573968887329,0.06406402587890625,0.07917976379394531
1750064040594401500,18.928401611328123,-0.021494626998901367,0.028334617614746094,0.18006372451782227
1750064040610362400,18.9443623046875,-0.01761224865913391,-0.014186859130859375,0.2292947769165039
1750064040626384100,18.960384033203123,-0.016205310821533203,-0.019768714904785156,0.2294921875
1750064040642314200,18.976314208984373,-0.02931201457977295,-0.05539512634277344,0.2810347080230713
1750064040658305300,18.99230517578125,-0.039555758237838745,-0.07535934448242188,0.23958563804626465
1750064040674235600,19.008235595703123,-0.08716624975204468,-0.02016448974609375,0.15670371055603027
1750064040690226700,19.024226806640623,-0.09028524160385132,0.023047447204589844,0.08120989799499512
1750064040706248400,19.04024853515625,-0.03724515438079834,-0.0035238265991210938,0.07169628143310547
1750064040722209300,19.056209228515623,0.006121695041656494,-0.0062808990478515625,0.02188730239868164
1750064040738200300,19.072200439453123,0.0041144490242004395,0.07932758331298828,-0.025079965591430664
1750064040754100000,19.088099853515626,-0.022296607494354248,0.05912303924560547,-0.03968548774719238
1750064040770121700,19.104121826171873,-0.08634030818939209,0.06504440307617188,-0.07535409927368164
1750064040786082600,19.12008251953125,-0.09205520153045654,0.10443115234375,-0.15860581398010254
1750064040802104300,19.136104248046873,-0.0949321985244751,0.13596534729003906,-0.15053319931030273
1750064040818065000,19.15206494140625,-0.06052783131599426,0.07349014282226562,-0.09934282302856445
1750064040834086700,19.168086669921873,-0.033941447734832764,-0.008447647094726562,-0.1477046012878418
1750064040850047200,19.184047119140626,-0.04752922058105469,0.04809856414794922,-0.0992288589477539
1750064040865977600,19.1999775390625,-0.11735564470291138,0.04932594299316406,-0.04285788536071777
1750064040881968600,19.21596875,-0.14766190946102142,0.04597282409667969,-0.07084870338439941
1750064040906016500,19.2400166015625,-0.09086218476295471,0.11371898651123047,-0.000072479248046875
1750064040921977300,19.255977294921873,-0.043526411056518555,0.03098773956298828,0.026354074478149414
1750064040937907500,19.271907470703123,-0.0339338481426239,-0.01819896697998047,0.021313905715942383
1750064040953898800,19.287898681640623,-0.07876783609390259,0.023497581481933594,0.05705571174621582
1750064040969889800,19.303889892578123,-0.08719608187675476,0.022177696228027344,0.12371110916137695
1750064040985881000,19.319881103515623,-0.08951660990715027,0.016767501831054688,0.10671782493591309
1750064041001841700,19.335841552734376,-0.08581307530403137,0.035561561584472656,0.03837275505065918
1750064041017863400,19.351863525390623,-0.09848609566688538,0.027952194213867188,-0.02728581428527832
1750064041033854700,19.367854736328123,-0.06634032726287842,0.051133155822753906,-0.03442573547363281
1750064041049815300,19.383815185546876,-0.06584581732749939,0.059546470642089844,-0.07616257667541504
1750064041065776000,19.399776123046873,-0.08814120292663574,0.08658218383789062,-0.03245902061462402
1750064041081767400,19.415767333984373,-0.10242578387260437,0.04634380340576172,0.05012035369873047
1750064041097819600,19.431819580078123,-0.172386035323143,0.05217552185058594,0.030052900314331055
1750064041113810700,19.447810791015623,-0.22103813290596008,0.0897226333618164,-0.03005075454711914
1750064041129741000,19.463740966796873,-0.23629063367843628,0.08440399169921875,-0.011261224746704102
1750064041145671200,19.479671142578123,-0.1400274932384491,0.03861522674560547,-0.031028270721435547
1750064041161631700,19.4956318359375,-0.10010930895805359,0.00736236572265625,-0.046440839767456055
1750064041177653500,19.511653564453123,-0.066875159740448,-0.059828758239746094,-0.018956661224365234
1750064041193644800,19.527644775390623,-0.09283027052879333,-0.069366455078125,-0.01631617546081543
1750064041209605400,19.54360546875,-0.1308896541595459,-0.02581310272216797,-0.02230095863342285
1750064041225535700,19.55953564453125,-0.11008590459823608,0.010953903198242188,-0.007918357849121094
1750064041241557200,19.57555712890625,-0.05948913097381592,-0.004775047302246094,-0.015544652938842773
1750064041257579000,19.5915791015625,-0.013639837503433228,0.030037879943847656,-0.059995412826538086
1750064041273570300,19.6075703125,0.00023499131202697754,0.1436481475830078,-0.03921318054199219
1750064041289531000,19.62353076171875,0.008000344038009644,0.1874837875366211,-0.010239601135253906
1750064041305552600,19.639552734375,0.02939501404762268,0.18317222595214844,-0.052294254302978516
1750064041321544000,19.6555439453125,0.053956031799316406,0.19504356384277344,-0.13088250160217285
1750064041337504500,19.67150439453125,0.06227380037307739,0.17935466766357422,-0.19114208221435547
1750064041353526300,19.6875263671875,0.0804319679737091,0.12883758544921875,-0.20410394668579102
1750064041369517600,19.703517578125,0.10080546140670776,0.10569190979003906,-0.16013622283935547
1750064041385539300,19.719539306640623,0.07864859700202942,0.009784698486328125,-0.07055068016052246
1750064041401469400,19.735469482421873,-0.016720235347747803,-0.04507255554199219,0.024399995803833008
1750064041417460700,19.751460693359373,-0.15535539388656616,-0.0700216293334961,0.03828859329223633
1750064041441386500,19.775386474609373,-0.2382645606994629,-0.13274478912353516,0.049634456634521484
1750064041457408300,19.791408203125,-0.2442079782485962,-0.16417884826660156,0.03540921211242676
1750064041473399300,19.8073994140625,-0.17105919122695923,-0.0870370864868164,0.05982065200805664
1750064041489360100,19.823360107421873,-0.1473878026008606,0.028693199157714844,0.14325809478759766
1750064041505320700,19.83932080078125,-0.1676730215549469,0.005846977233886719,0.2567267417907715
1750064041529338000,19.863338134765623,-0.30177053809165955,0.020326614379882812,0.3216285705566406
1750064041545390300,19.879390380859373,-0.3708013892173767,0.03862953186035156,0.3540151119232178
1750064041561351200,19.89535107421875,-0.32981884479522705,0.0015039443969726562,0.3136119842529297
1750064041577311700,19.911311767578123,-0.20678222179412842,0.05612659454345703,0.17755556106567383
1750064041593333500,19.92733349609375,-0.04168519377708435,0.090728759765625,0.0007984638214111328
1750064041609324800,19.94332470703125,0.06127014756202698,0.01607990264892578,-0.15010547637939453
1750064041625285400,19.959285400390623,0.07802021503448486,-0.01670074462890625,-0.2280893325805664
1750064041641276700,19.975276611328123,0.11546704173088074,0.05922508239746094,-0.342240571975708
1750064041657298400,19.99129833984375,0.11630639433860779,0.10418128967285156,-0.2716250419616699
1750064041673289500,20.00728955078125,0.16443243622779846,0.06845664978027344,-0.2791728973388672
1750064041689250300,20.023250244140623,0.21156713366508484,0.02687549591064453,-0.23299384117126465
1750064041705180400,20.039180419921873,0.22574177384376526,-0.031105995178222656,-0.1787703037261963
1750064041721171700,20.055171630859373,0.20457100868225098,-0.07423686981201172,-0.09059619903564453
1750064041737193200,20.071193115234376,0.14408817887306213,-0.06783390045166016,-0.007372617721557617
1750064041753184500,20.0871845703125,0.04541325569152832,-0.011920928955078125,0.12139153480529785
1750064041769145300,20.103145263671873,-0.015115737915039062,0.02546977996826172,0.30437278747558594
1750064041785106000,20.11910595703125,-0.11607667803764343,0.09180831909179688,0.3536562919616699
1750064041801097200,20.13509716796875,-0.16487200558185577,0.16207122802734375,0.3625788688659668
1750064041817027300,20.15102734375,-0.1949649453163147,0.17994022369384766,0.3979816436767578
1750064041833018600,20.1670185546875,-0.1932879388332367,0.1350698471069336,0.302166223526001
1750064041849009700,20.183009765625,-0.15880875289440155,0.09647178649902344,0.13409113883972168
1750064041865001000,20.1990009765625,-0.09068213403224945,0.006684303283691406,0.03722429275512695
1750064041880931000,20.21493115234375,-0.060002923011779785,-0.0181121826171875,-0.07295083999633789
1750064041896952800,20.230952880859373,-0.0013034939765930176,-0.01626300811767578,-0.23481965065002441
1750064041912944000,20.246944091796873,-0.005589783191680908,-0.09144115447998047,-0.40485119819641113
1750064041928874200,20.262874267578123,-0.027382493019104004,-0.1011362075805664,-0.48990869522094727
1750064041944804400,20.278804443359373,0.010319739580154419,-0.06963253021240234,-0.5555377006530762
