time,seconds_elapsed,z,y,x
1750064021795096600,0.1290966796875,7.347461223602295,6.493587017059326,0.13606391847133636
1750064021811088000,0.145087890625,7.3492045402526855,6.491555690765381,0.13889636099338531
1750064021827079200,0.1610791015625,7.358362197875977,6.481051445007324,0.14444638788700104
1750064021843039700,0.177039794921875,7.377718925476074,6.458701133728027,0.15755824744701385
1750064021859031000,0.193031005859375,7.402668476104736,6.429518699645996,0.17936061322689056
1750064021875022000,0.20902197265625,7.417842388153076,6.4119744300842285,0.1805381327867508
1750064021891013400,0.225013427734375,7.42742919921875,6.401081562042236,0.1727363020181656
1750064021922995700,0.25699560546875,7.471454620361328,6.3496809005737305,0.17120331525802612
1750064021938926000,0.272926025390625,7.482052803039551,6.338029384613037,0.13661204278469086
1750064021954886700,0.28888671875,7.487157344818115,6.3322834968566895,0.12265995144844055
1750064021970847500,0.304847412109375,7.48592472076416,6.333595275878906,0.1299949735403061
1750064021986808000,0.32080810546875,7.483508110046387,6.335272312164307,0.1783662736415863
1750064022002829800,0.336829833984375,7.4717230796813965,6.348605632781982,0.19735731184482574
1750064022018790400,0.352790283203125,7.460440158843994,6.362168788909912,0.1871720254421234
1750064022034751200,0.368751220703125,7.488731861114502,6.328833103179932,0.18750301003456116
1750064022058707500,0.39270751953125,7.58313512802124,6.214402675628662,0.2183125764131546
1750064022074668300,0.408668212890625,7.6110968589782715,6.179976463317871,0.22243717312812805
1750064022090659300,0.424659423828125,7.596340179443359,6.198531150817871,0.21029052138328552
1750064022106589400,0.44058935546875,7.581417560577393,6.217082500457764,0.2009340077638626
1750064022122580700,0.456580810546875,7.564151287078857,6.238394737243652,0.19091975688934326
1750064022146598100,0.48059814453125,7.533782958984375,6.275693416595459,0.16781747341156006
1750064022170554400,0.504554443359375,7.499497413635254,6.316718101501465,0.16434381902217865
1750064022194510600,0.528510498046875,7.497147083282471,6.319429397583008,0.16733817756175995
1750064022210502000,0.544501953125,7.49425745010376,6.322768211364746,0.17059411108493805
1750064022234458000,0.5684580078125,7.4792890548706055,6.340513229370117,0.168878972530365
1750064022250419000,0.5844189453125,7.460118770599365,6.363027095794678,0.1700291633605957
1750064022266379500,0.600379638671875,7.438309669494629,6.388379096984863,0.17483144998550415
1750064022282401300,0.6164013671875,7.41925573348999,6.410351276397705,0.1800946295261383
1750064022298331400,0.632331298828125,7.404797077178955,6.427034378051758,0.18059973418712616
1750064022314322700,0.64832275390625,7.392541408538818,6.44117546081543,0.17881043255329132
1750064022330283500,0.664283447265625,7.380293846130371,6.4552412033081055,0.177531436085701
1750064022346274600,0.680274658203125,7.367991924285889,6.4691925048828125,0.18063904345035553
1750064022370169900,0.704169921875,7.353572368621826,6.485353469848633,0.18857289850711823
1750064022386130700,0.720130615234375,7.347698211669922,6.491994857788086,0.1890202760696411
1750064022402121700,0.736121826171875,7.342308044433594,6.49812126159668,0.18792356550693512
1750064022418082600,0.75208251953125,7.336073875427246,6.505148887634277,0.1882878690958023
1750064022434043100,0.768043212890625,7.330625534057617,6.5111894607543945,0.19168847799301147
1750064022450004000,0.78400390625,7.328270435333252,6.513720989227295,0.19566380977630615
1750064022465995000,0.7999951171875,7.329758644104004,6.512017726898193,0.19659218192100525
1750064022481925400,0.81592529296875,7.332009315490723,6.509566307067871,0.1938571333885193
1750064022497916400,0.83191650390625,7.3303985595703125,6.511547565460205,0.18810564279556274
1750064022513877200,0.847877197265625,7.323383331298828,6.519577980041504,0.18316687643527985
1750064022529837800,0.863837890625,7.315810203552246,6.528079509735107,0.18300774693489075
1750064022545829000,0.8798291015625,7.312807559967041,6.531394958496094,0.18472163379192352
1750064022561820200,0.895820068359375,7.316969871520996,6.526768207550049,0.18343904614448547
1750064022577811500,0.9118115234375,7.325902462005615,6.516969203948975,0.175095796585083
1750064022593802800,0.927802734375,7.335269927978516,6.506718158721924,0.163763165473938
1750064022609793800,0.943793701171875,7.342424392700195,6.498851299285889,0.15532587468624115
1750064022625754600,0.959754638671875,7.347441673278809,6.493218898773193,0.15360264480113983
1750064022641776400,0.9757763671875,7.352422714233398,6.487516403198242,0.1561843305826187
1750064022657767400,0.991767333984375,7.35856819152832,6.4805707931518555,0.15510551631450653
1750064022681754400,1.01575439453125,7.372097015380859,6.465222358703613,0.15319544076919556
1750064022697684500,1.0316845703125,7.384515762329102,6.450868606567383,0.16005510091781616
1750064022713675800,1.04767578125,7.399312496185303,6.433568477630615,0.1725417971611023
1750064022729636400,1.06363623046875,7.4151740074157715,6.4149041175842285,0.1860140860080719
1750064022745597200,1.07959716796875,7.429473876953125,6.398046970367432,0.19573263823986053
1750064022761557800,1.095557861328125,7.439754962921143,6.385956764221191,0.19997034966945648
1750064022777579500,1.11157958984375,7.441986560821533,6.383476734161377,0.19608378410339355
1750064022793601300,1.127601318359375,7.4366841316223145,6.38986349105835,0.18913857638835907
1750064022809561900,1.143561767578125,7.423405170440674,6.405462741851807,0.18301884829998016
1750064022825522700,1.159522705078125,7.412721633911133,6.417917251586914,0.1796962022781372
1750064022841544400,1.17554443359375,7.42414665222168,6.404915809631348,0.17172756791114807
1750064022857474600,1.191474609375,7.431309700012207,6.396839141845703,0.16270430386066437
1750064022873465900,1.2074658203125,7.438488483428955,6.388706207275391,0.153947651386261
1750064022889457000,1.223456787109375,7.442408084869385,6.384241580963135,0.14968261122703552
1750064022905448200,1.2394482421875,7.442792892456055,6.383821487426758,0.14853118360042572
1750064022921439500,1.255439453125,7.4417877197265625,6.3849968910217285,0.1483013927936554
1750064022937430500,1.271430419921875,7.448038101196289,6.377765655517578,0.14570677280426025
1750064022953391400,1.287391357421875,7.459402084350586,6.364588737487793,0.14045242965221405
1750064022969352000,1.30335205078125,7.475427627563477,6.345890522003174,0.1343098282814026
1750064022985343200,1.31934326171875,7.494627475738525,6.323298931121826,0.1297621876001358
1750064023001334500,1.33533447265625,7.514422416687012,6.299837112426758,0.12605412304401398
1750064023017325600,1.35132568359375,7.532377243041992,6.278430461883545,0.12248729169368744
1750064023033286400,1.367286376953125,7.547752857208252,6.2600250244140625,0.1179291233420372
1750064023049277400,1.38327734375,7.56220006942749,6.242621421813965,0.1148630827665329
1750064023065207800,1.399207763671875,7.5788798332214355,6.222404956817627,0.11245638877153397
1750064023081168400,1.41516845703125,7.598410129547119,6.198554515838623,0.11172989755868912
1750064023097190100,1.431190185546875,7.618300914764404,6.174212455749512,0.10480623692274094
1750064023113120300,1.447120361328125,7.636175155639648,6.152210712432861,0.09757482260465622
1750064023129111600,1.463111572265625,7.652710437774658,6.131655216217041,0.09599559009075165
1750064023145072000,1.479072021484375,7.668821334838867,6.111461162567139,0.09802256524562836
1750064023161063400,1.4950634765625,7.684915065765381,6.091265678405762,0.09462364763021469
1750064023177054700,1.5110546875,7.70095682144165,6.071054935455322,0.08913162350654602
1750064023201041400,1.53504150390625,7.7195305824279785,6.047537803649902,0.08075834810733795
1750064023224936700,1.558936767578125,7.73422908782959,6.028685092926025,0.08394917845726013
1750064023240897500,1.5748974609375,7.744065761566162,6.015994548797607,0.08749620616436005
1750064023256919000,1.5909189453125,7.754084587097168,6.003057956695557,0.08859642595052719
1750064023272879900,1.6068798828125,7.7631072998046875,5.99138879776001,0.0884518250823021
1750064023296836000,1.630836181640625,7.770488739013672,5.981863975524902,0.08488427102565765
1750064023312797000,1.646796875,7.770109176635742,5.982407569885254,0.08127119392156601
1750064023328788000,1.6627880859375,7.765275955200195,5.988726615905762,0.077742800116539
1750064023352744400,1.686744384765625,7.748843669891357,6.01011323928833,0.06597170233726501
1750064023368705000,1.702705078125,7.735666275024414,6.027007102966309,0.07101962715387344
1750064023384665900,1.718665771484375,7.725136756896973,6.040515422821045,0.06946545839309692
1750064023400687400,1.734687255859375,7.719273567199707,6.048062801361084,0.06444032490253448
1750064023416617700,1.75061767578125,7.714395999908447,6.054348468780518,0.05785071849822998
1750064023432578300,1.766578369140625,7.709512233734131,6.060622215270996,0.051664210855960846
1750064023448539100,1.7825390625,7.705165863037109,6.066178798675537,0.04774535447359085
1750064023464499700,1.798499755859375,7.703007698059082,6.068936347961426,0.04552329704165459
1750064023480521500,1.814521484375,7.701311111450195,6.071106433868408,0.04309869930148125
1750064023496451600,1.83045166015625,7.6980814933776855,6.0752434730529785,0.03668444976210594
1750064023512412400,1.846412353515625,7.692930698394775,6.081790924072266,0.03201207146048546
1750064023528373000,1.862373046875,7.685992240905762,6.090568542480469,0.029758594930171967
1750064023544364300,1.8783642578125,7.677497386932373,6.101283550262451,0.027606384828686714
1750064023560324900,1.894324951171875,7.664956092834473,6.117031574249268,0.027872195467352867
1750064023576316200,1.910316162109375,7.65107536315918,6.134396553039551,0.02468092553317547
1750064023600302800,1.934302734375,7.646184921264648,6.140496730804443,0.023392274975776672
1750064023616233200,1.950233154296875,7.652468204498291,6.132674694061279,0.02041296660900116
1750064023632224300,1.966224365234375,7.661547660827637,6.12133264541626,0.019215645268559456
1750064023648185000,1.98218505859375,7.668413162231445,6.112727642059326,0.019461948424577713
1750064023664145700,1.998145751953125,7.67203426361084,6.108161449432373,0.02514817751944065
1750064023680137000,2.014136962890625,7.673383712768555,6.106451034545898,0.028800709173083305
1750064023696097500,2.03009765625,7.6742448806762695,6.10536527633667,0.029527124017477036
1750064023712058400,2.046058349609375,7.670385837554932,6.11021614074707,0.028717853128910065
1750064023728049400,2.06204931640625,7.661101818084717,6.1218695640563965,0.025028351694345474
1750064023744040700,2.078040771484375,7.652065753936768,6.133176326751709,0.020730433985590935
1750064023760032000,2.094031982421875,7.648922443389893,6.137111186981201,0.015550182200968266
1750064023776023000,2.11002294921875,7.651533603668213,6.133868217468262,0.008828618563711643
1750064023792044800,2.126044921875,7.657337188720703,6.1266279220581055,0.0016996435588225722
1750064023808036000,2.1420361328125,7.6622443199157715,6.120489597320557,-0.004477291833609343
1750064023823996700,2.15799658203125,7.664460182189941,6.117703437805176,-0.011863894760608673
1750064023840018400,2.174018310546875,7.664205074310303,6.118005275726318,-0.019272416830062866
1750064023856009700,2.190009765625,7.663223743438721,6.119215965270996,-0.024385960772633553
1750064023871970300,2.20597021484375,7.662042140960693,6.120683193206787,-0.02716207504272461
1750064023895957200,2.229957275390625,7.660284996032715,6.122862815856934,-0.0310484878718853
1750064023911917800,2.245917724609375,7.660186767578125,6.122976779937744,-0.03288140147924423
1750064023927878700,2.261878662109375,7.662373065948486,6.120221138000488,-0.03632781654596329
1750064023943870000,2.277869873046875,7.66606330871582,6.1155853271484375,-0.03838350623846054
1750064023959861000,2.293861083984375,7.668374538421631,6.112683296203613,-0.03907587379217148
1750064023975852300,2.309852294921875,7.665103435516357,6.116758823394775,-0.04292706772685051
1750064023991843600,2.325843505859375,7.657321453094482,6.12647008895874,-0.04670001193881035
1750064024007804200,2.34180419921875,7.650071620941162,6.135519981384277,-0.046719446778297424
1750064024023764700,2.3577646484375,7.649882793426514,6.135793685913086,-0.04136485978960991
1750064024039786500,2.373786376953125,7.6568827629089355,6.127080917358398,-0.037676163017749786
1750064024055747300,2.389747314453125,7.668301105499268,6.112672328948975,-0.05276201665401459
1750064024071708000,2.4057080078125,7.685794353485107,6.09006929397583,-0.10002996027469635
1750064024087668700,2.421668701171875,7.70990514755249,6.057816028594971,-0.17499877512454987
1750064024103659800,2.43765966796875,7.747908592224121,6.0038862228393555,-0.306023508310318
1750064024119651000,2.453651123046875,7.799533843994141,5.925159931182861,-0.47972896695137024
1750064024135642400,2.469642333984375,7.860347747802734,5.826829433441162,-0.6583097577095032
1750064024151603000,2.48560302734375,7.916332721710205,5.732807159423828,-0.7981216311454773
1750064024167563800,2.501563720703125,7.958069801330566,5.662487983703613,-0.8807651400566101
1750064024183585500,2.51758544921875,7.9816083908081055,5.626675605773926,-0.8971255421638489
1750064024199515600,2.533515625,7.986714839935303,5.622274875640869,-0.8790948390960693
1750064024215476200,2.549476318359375,7.976394176483154,5.641425609588623,-0.8496187329292297
1750064024231437000,2.56543701171875,7.959240436553955,5.670248031616211,-0.8180268406867981
1750064024247397600,2.581397705078125,7.94200325012207,5.699085712432861,-0.7844760417938232
1750064024263419400,2.59741943359375,7.926334381103516,5.726402282714844,-0.7429149150848389
1750064024279410700,2.61341064453125,7.93569278717041,5.713332176208496,-0.743646502494812
1750064024295401700,2.629401611328125,7.938730716705322,5.71079158782959,-0.7306194305419922
1750064024311393000,2.64539306640625,7.923246383666992,5.736684322357178,-0.6949784159660339
1750064024327384300,2.66138427734375,7.902125358581543,5.767205238342285,-0.6827540993690491
1750064024343375400,2.677375244140625,7.879965305328369,5.796942234039307,-0.6870208382606506
1750064024359336200,2.693336181640625,7.862208843231201,5.820913314819336,-0.6877709627151489
1750064024383384000,2.717384033203125,7.84767484664917,5.842008113861084,-0.6747744679450989
1750064024399375000,2.733375,7.844637393951416,5.8463358879089355,-0.6726121306419373
1750064024415366400,2.749366455078125,7.845278263092041,5.845703601837158,-0.6706324219703674
1750064024431357700,2.765357666015625,7.8457183837890625,5.8456854820251465,-0.6656202077865601
1750064024447348700,2.7813486328125,7.841279029846191,5.852166175842285,-0.6609764695167542
1750064024463340000,2.797340087890625,7.832300186157227,5.86460018157959,-0.657220184803009
1750064024479270100,2.813270263671875,7.821289539337158,5.8790693283081055,-0.6590614318847656
1750064024495261400,2.829261474609375,7.812253475189209,5.89048957824707,-0.664249837398529
1750064024511222000,2.845221923828125,7.807287216186523,5.89581298828125,-0.6753138303756714
1750064024527152400,2.86115234375,7.808882713317871,5.887158393859863,-0.7301389575004578
1750064024543052000,2.877052001953125,7.826136589050293,5.845235824584961,-0.8690148591995239
1750064024559012600,2.8930126953125,7.860745906829834,5.755757808685303,-1.1181799173355103
1750064024575004000,2.90900390625,7.924807548522949,5.602680206298828,-1.4063371419906616
1750064024590964500,2.924964599609375,8.014909744262695,5.379455089569092,-1.73005211353302
1750064024606894800,2.940894775390625,8.128594398498535,5.091513633728027,-2.042750120162964
1750064024622886000,2.956885986328125,8.27741527557373,4.758323669433594,-2.2390034198760986
1750064024638877200,2.972877197265625,8.432426452636719,4.405089855194092,-2.3790223598480225
1750064024654868500,2.988868408203125,8.564617156982422,4.057993412017822,-2.5200021266937256
1750064024670829000,3.0048291015625,8.65593433380127,3.745422840118408,-2.6864466667175293
1750064024686850800,3.020850830078125,8.705655097961426,3.482729434967041,-2.8727264404296875
1750064024702811400,3.036811279296875,8.748631477355957,3.3213448524475098,-2.932661771774292
1750064024718772200,3.052772216796875,8.760986328125,3.2791988849639893,-2.9431896209716797
1750064024734732800,3.06873291015625,8.729317665100098,3.3616514205932617,-2.9442672729492188
1750064024750724000,3.08472412109375,8.657610893249512,3.557046890258789,-2.926358938217163
1750064024766684700,3.1006845703125,8.569192886352539,3.8255844116210938,-2.846792221069336
1750064024782676000,3.116676025390625,8.469042778015137,4.121583461761475,-2.730980634689331
1750064024798697700,3.13269775390625,8.403983116149902,4.359719753265381,-2.5566177368164062
1750064024814627800,3.1486279296875,8.391071319580078,4.503715515136719,-2.340269088745117
1750064024830588700,3.164588623046875,8.391791343688965,4.579707622528076,-2.1850650310516357
1750064024846579700,3.180579833984375,8.399742126464844,4.593102931976318,-2.1255879402160645
1750064024862540500,3.19654052734375,8.418575286865234,4.562912464141846,-2.1160850524902344
1750064024878562300,3.212562255859375,8.458822250366211,4.507123947143555,-2.0747416019439697
1750064024910514200,3.24451416015625,8.548972129821777,4.416266441345215,-1.8926329612731934
1750064024926474800,3.260474853515625,8.569153785705566,4.422432899475098,-1.7838391065597534
1750064024942374400,3.27637451171875,8.595203399658203,4.438074111938477,-1.6113240718841553
1750064024958335200,3.292335205078125,8.639033317565918,4.446377754211426,-1.3293676376342773
1750064024974326300,3.308326171875,8.700549125671387,4.416294097900391,-0.9834535717964172
1750064024990287000,3.324287109375,8.73735237121582,4.386470794677734,-0.7667722702026367
1750064025006278400,3.3402783203125,8.730003356933594,4.412475109100342,-0.6982107758522034
1750064025022208500,3.35620849609375,8.693194389343262,4.480656147003174,-0.7228276133537292
1750064025038230300,3.372230224609375,8.65344524383545,4.546655654907227,-0.7849830389022827
1750064025054221300,3.38822119140625,8.6453275680542,4.562653064727783,-0.7815947532653809
1750064025070182100,3.40418212890625,8.670531272888184,4.5288004875183105,-0.6944355368614197
1750064025094199600,3.428199462890625,8.729660034179688,4.442063808441162,-0.48112648725509644
1750064025110129700,3.444129638671875,8.7470703125,4.40673828125,-0.4896962344646454
1750064025126059800,3.460059814453125,8.741669654846191,4.410374641418457,-0.5497220754623413
1750064025142051000,3.476051025390625,8.73769474029541,4.417971611022949,-0.5518970489501953
1750064025158072800,3.49207275390625,8.75749683380127,4.392560005187988,-0.42668601870536804
1750064025174003000,3.5080029296875,8.788835525512695,4.344901084899902,-0.22042079269886017
1750064025189994000,3.523993896484375,8.82106876373291,4.284588813781738,0.03785334527492523
1750064025205985300,3.5399853515625,8.842049598693848,4.226212978363037,0.35731983184814453
1750064025221946000,3.555946044921875,8.831214904785156,4.192232131958008,0.7779607176780701
1750064025237967600,3.571967529296875,8.780858993530273,4.177005290985107,1.2726104259490967
1750064025253959000,3.587958984375,8.691265106201172,4.157986640930176,1.828512191772461
1750064025269919700,3.603919677734375,8.55809211730957,4.121210098266602,2.4382550716400146
1750064025285880300,3.61988037109375,8.390316009521484,4.045266151428223,3.0673792362213135
1750064025301871600,3.63587158203125,8.181709289550781,3.9194605350494385,3.7239556312561035
1750064025317862700,3.651862548828125,7.895254135131836,3.756442070007324,4.441226005554199
1750064025333823500,3.667823486328125,7.48382043838501,3.5256052017211914,5.266205787658691
1750064025349753600,3.683753662109375,6.94171142578125,3.1851885318756104,6.151228427886963
1750064025365745000,3.699744873046875,6.363938808441162,2.7026047706604004,6.954608917236328
1750064025381675000,3.715675048828125,5.861447811126709,2.07625675201416,7.583070755004883
1750064025397696800,3.73169677734375,5.451472759246826,1.3558177947998047,8.038257598876953
1750064025413688000,3.74768798828125,5.027159690856934,0.6044964790344238,8.398369789123535
1750064025429679000,3.76367919921875,4.475668907165527,-0.1537412405014038,8.72439956665039
1750064025453604900,3.78760498046875,3.404062032699585,-1.3683713674545288,9.094521522521973
1750064025469565700,3.803565673828125,2.574476480484009,-2.227313756942749,9.196821212768555
1750064025485556700,3.819556640625,1.717822790145874,-3.0543055534362793,9.159184455871582
1750064025501517600,3.835517578125,0.9094593524932861,-3.8001139163970947,8.994575500488281
1750064025517478100,3.85147802734375,0.24516309797763824,-4.4566264152526855,8.732053756713867
1750064025533469400,3.867469482421875,-0.22691139578819275,-5.051254749298096,8.402603149414062
1750064025549460700,3.883460693359375,-0.4981617033481598,-5.606612682342529,8.030450820922852
1750064025565421300,3.89942138671875,-0.6020435094833374,-6.137986183166504,7.624503135681152
1750064025581412600,3.91541259765625,-0.6123054027557373,-6.611804962158203,7.216616153717041
1750064025597434400,3.931434326171875,-0.5665969252586365,-7.005539894104004,6.838989734649658
1750064025621421000,3.955421142578125,-0.4359995722770691,-7.447927951812744,6.3646440505981445
1750064025637382000,3.9713818359375,-0.3165554404258728,-7.663702487945557,6.110471725463867
1750064025661376300,3.995376220703125,-0.0770014077425003,-7.899770736694336,5.810170650482178
1750064025677398000,4.01139794921875,0.0880582258105278,-8.024382591247559,5.636658668518066
1750064025701293300,4.035293212890625,0.3105161488056183,-8.165079116821289,5.422680377960205
1750064025717315000,4.051315185546875,0.425279438495636,-8.22708797454834,5.320200443267822
1750064025733245200,4.0672451171875,0.5260258913040161,-8.27342700958252,5.238711833953857
1750064025749205800,4.083205810546875,0.6417869329452515,-8.31381893157959,5.161288738250732
1750064025765197000,4.099197021484375,0.796339750289917,-8.350415229797363,5.080037593841553
1750064025781188400,4.115188232421875,1.0112282037734985,-8.378003120422363,4.995687961578369
1750064025797118500,4.131118408203125,1.2790309190750122,-8.392204284667969,4.909724235534668
1750064025813079000,4.1470791015625,1.5875030755996704,-8.391214370727539,4.820553779602051
1750064025829039900,4.163039794921875,1.9188714027404785,-8.374464988708496,4.728282451629639
1750064025845000400,4.17900048828125,2.2439234256744385,-8.349030494689941,4.629135608673096
1750064025860991700,4.19499169921875,2.541718006134033,-8.32054615020752,4.525326251983643
1750064025876983000,4.210983154296875,2.7992496490478516,-8.289973258972168,4.428422451019287
1750064025892943600,4.226943603515625,3.022007942199707,-8.258234977722168,4.340437412261963
1750064025917022000,4.25102197265625,3.3512675762176514,-8.196462631225586,4.213952541351318
1750064025933013200,4.26701318359375,3.5622308254241943,-8.149730682373047,4.13071346282959
1750064025956847400,4.290847412109375,3.8901400566101074,-8.048008918762207,4.033209800720215
1750064025972869000,4.306869140625,4.102376937866211,-7.937920570373535,4.041076183319092
1750064025988768800,4.322768798828125,4.271290302276611,-7.795431137084961,4.142188549041748
1750064026004699000,4.338698974609375,4.407698631286621,-7.635774612426758,4.293895721435547
1750064026020690200,4.354690185546875,4.512466907501221,-7.441638469696045,4.519960403442383
1750064026036651000,4.370651123046875,4.566904067993164,-7.194579124450684,4.853021621704102
1750064026052581000,4.3865810546875,4.533860683441162,-6.908205986022949,5.281210422515869
1750064026068541700,4.402541748046875,4.39671516418457,-6.599508762359619,5.769381523132324
1750064026084502500,4.41850244140625,4.185922145843506,-6.27384090423584,6.267965316772461
1750064026100493600,4.43449365234375,3.9034435749053955,-5.898890018463135,6.792392730712891
1750064026116515300,4.450515380859375,3.540213108062744,-5.467255592346191,7.331192970275879
1750064026132445700,4.46644580078125,3.1110212802886963,-4.989286422729492,7.848499298095703
1750064026148436700,4.482436767578125,2.682863712310791,-4.46406364440918,8.309317588806152
1750064026164458500,4.49845849609375,2.2624943256378174,-3.9528698921203613,8.684833526611328
1750064026180449800,4.51444970703125,1.8588988780975342,-3.508347511291504,8.966958999633789
1750064026196410400,4.530410400390625,1.4792677164077759,-3.1079483032226562,9.182744979858398
1750064026212340500,4.546340576171875,1.0633277893066406,-2.6784348487854004,9.37367057800293
1750064026228331800,4.562331787109375,0.6667261123657227,-2.3012425899505615,9.509477615356445
1750064026244323000,4.578322998046875,0.341146856546402,-2.008941888809204,9.592608451843262
1750064026268279300,4.602279296875,-0.19682663679122925,-1.6057575941085815,9.672289848327637
1750064026284240100,4.618240234375,-0.49850425124168396,-1.3285595178604126,9.703442573547363
1750064026308196400,4.6421962890625,-0.6825953125953674,-0.9973816871643066,9.731890678405762
1750064026324157000,4.658156982421875,-0.6370318531990051,-0.8102964162826538,9.752333641052246
1750064026340117800,4.67411767578125,-0.49747663736343384,-0.6440733075141907,9.772822380065918
1750064026364043500,4.69804345703125,-0.33220016956329346,-0.5618149638175964,9.784907341003418
1750064026379973600,4.7139736328125,-0.310160756111145,-0.5353949069976807,9.787110328674316
1750064026395903700,4.72990380859375,-0.38051965832710266,-0.46729543805122375,9.788117408752441
1750064026411895000,4.74589501953125,-0.3969406485557556,-0.34800562262535095,9.792430877685547
1750064026427855600,4.761855712890625,-0.382735013961792,-0.25570785999298096,9.795841217041016
1750064026443816400,4.77781640625,-0.35986968874931335,-0.3373161852359772,9.794238090515137
1750064026459807700,4.793807861328125,-0.4116887152194977,-0.534805953502655,9.783398628234863
1750064026475798800,4.809798828125,-0.3618740141391754,-0.7938047051429749,9.767769813537598
1750064026491759600,4.825759521484375,-0.25219663977622986,-1.0672516822814941,9.74514102935791
1750064026507720200,4.84172021484375,-0.09187398105859756,-1.2955456972122192,9.720261573791504
1750064026523681000,4.857680908203125,0.12510931491851807,-1.4606410264968872,9.696455955505371
1750064026539641600,4.8736416015625,0.42083939909935,-1.6203458309173584,9.662700653076172
1750064026555602400,4.8896025390625,0.7245838642120361,-1.773688793182373,9.617661476135254
1750064026579589000,4.913589111328125,0.8000614047050476,-2.015843629837036,9.563821792602539
1750064026595550000,4.929550048828125,0.7569482326507568,-2.229304790496826,9.519853591918945
1750064026611541000,4.945541015625,0.7481658458709717,-2.513097047805786,9.449602127075195
1750064026635528000,4.96952783203125,0.655874490737915,-3.1880710124969482,9.250751495361328
1750064026659514600,4.9935146484375,0.7641776204109192,-4.0833611488342285,8.883275985717773
1750064026699462100,5.033462158203125,0.917826235294342,-5.18723201751709,8.271675109863281
1750064026715453400,5.049453369140625,1.0473060607910156,-5.428843021392822,8.099459648132324
1750064026731444700,5.06544482421875,1.2109756469726562,-5.5110764503479,8.020720481872559
1750064026747435800,5.081435791015625,1.3581085205078125,-5.51348352432251,7.99546480178833
1750064026763396600,5.097396728515625,1.5116040706634521,-5.52968692779541,7.956632614135742
1750064026779357200,5.113357177734375,1.6225088834762573,-5.529698848724365,7.934752464294434
1750064026795287300,5.129287353515625,1.6531296968460083,-5.423832893371582,8.001224517822266
1750064026819274200,5.153274169921875,1.6177595853805542,-5.061347007751465,8.242329597473145
1750064026835204400,5.169204345703125,1.6419020891189575,-4.7292304039001465,8.432612419128418
1750064026851256600,5.185256591796875,1.7768992185592651,-4.337987422943115,8.61364459991455
1750064026867217400,5.201217529296875,1.9171324968338013,-3.912510871887207,8.785627365112305
1750064026883178000,5.217177978515625,1.9448920488357544,-3.5069708824157715,8.94924259185791
1750064026899169300,5.233169189453125,1.8473563194274902,-3.180209159851074,9.090871810913086
1750064026923186400,5.2571865234375,1.7582108974456787,-2.9072115421295166,9.199304580688477
1750064026939177700,5.273177734375,1.753214955329895,-2.786012887954712,9.23768138885498
1750064026955169000,5.2891689453125,1.73732590675354,-2.5784173011779785,9.300745010375977
1750064026971160000,5.30516015625,1.7109037637710571,-2.181791305541992,9.406539916992188
1750064026987121000,5.321120849609375,1.597137689590454,-1.7302912473678589,9.519750595092773
1750064027003081500,5.33708154296875,1.3826497793197632,-1.370808482170105,9.611429214477539
1750064027019103200,5.353103271484375,1.2584750652313232,-1.2369468212127686,9.646584510803223
1750064027035064000,5.36906396484375,1.1391326189041138,-1.1958163976669312,9.666582107543945
1750064027051055000,5.38505517578125,1.084173560142517,-1.1603379249572754,9.677220344543457
1750064027067016000,5.401015869140625,1.022273302078247,-1.0654246807098389,9.694854736328125
1750064027083007200,5.41700732421875,0.953673779964447,-0.8976947069168091,9.71879768371582
1750064027098967800,5.4329677734375,0.778123140335083,-0.8220426440238953,9.741106986999512
1750064027114898000,5.44889794921875,0.496936559677124,-0.783980667591095,9.76262378692627
1750064027130950100,5.4649501953125,0.24854397773742676,-0.6886162161827087,9.779285430908203
1750064027146911000,5.480910888671875,-0.004199205432087183,-0.5391989350318909,9.791814804077148
1750064027162871600,5.49687158203125,-0.21859247982501984,-0.41069209575653076,9.795607566833496
1750064027178862800,5.51286279296875,-0.3619984984397888,-0.2883388102054596,9.795723915100098
1750064027194793000,5.52879296875,-0.4461486041545868,-0.1614072471857071,9.795167922973633
1750064027210814700,5.544814697265625,-0.5419120192527771,-0.08485504239797592,9.791298866271973
1750064027226775300,5.560775390625,-0.6283183693885803,-0.11121639609336853,9.785870552062988
1750064027242705700,5.57670556640625,-0.6889554858207703,-0.32431700825691223,9.7770414352417
1750064027258696700,5.59269677734375,-0.7025269269943237,-0.6994552612304688,9.756415367126465
1750064027282592000,5.616592041015625,-0.7133084535598755,-1.560935378074646,9.65531063079834
1750064027298583300,5.632583251953125,-0.8166314363479614,-2.3967010974884033,9.474138259887695
1750064027314574600,5.64857470703125,-0.8684247732162476,-3.1920387744903564,9.231852531433105
1750064027330535200,5.66453515625,-0.8402975797653198,-3.9028103351593018,8.957250595092773
1750064027346496000,5.68049609375,-0.7638649344444275,-4.496565341949463,8.681462287902832
1750064027362517500,5.696517578125,-0.7020452618598938,-5.052486896514893,8.375555038452148
1750064027378508800,5.7125087890625,-0.693034291267395,-5.6028337478637695,8.018623352050781
1750064027394439000,5.72843896484375,-0.553625226020813,-6.038583278656006,7.707098960876465
1750064027410399700,5.744399658203125,-0.15624795854091644,-6.375142574310303,7.450069427490234
1750064027426360300,5.7603603515625,0.3390384912490845,-6.60011625289917,7.24526834487915
1750064027442382000,5.776382080078125,0.7941431403160095,-6.809140682220459,7.012514591217041
1750064027458373400,5.792373291015625,1.152705192565918,-7.052652835845947,6.715784072875977
1750064027474364400,5.808364501953125,1.3855863809585571,-7.267873764038086,6.436500072479248
1750064027490355700,5.824355712890625,1.5096681118011475,-7.440512657165527,6.207259178161621
1750064027506285800,5.840285888671875,1.4936411380767822,-7.58237361907959,6.037136077880859
1750064027522307600,5.8563076171875,1.3517653942108154,-7.702126502990723,5.917801380157471
1750064027538268400,5.872268310546875,1.1746960878372192,-7.8205742835998535,5.799060821533203
1750064027554198500,5.888198486328125,0.9568541646003723,-7.91229772567749,5.71405029296875
1750064027570220300,5.90422021484375,0.6622825860977173,-7.941717147827148,5.714971542358398
1750064027586180900,5.920180908203125,0.3088794946670532,-7.926098346710205,5.766451358795166
1750064027602172200,5.936172119140625,-0.08216039836406708,-7.87896728515625,5.838280200958252
1750064027618163500,5.95216357421875,-0.48924481868743896,-7.822667598724365,5.893802642822266
1750064027634154500,5.968154541015625,-0.8892390131950378,-7.784149646759033,5.898021697998047
1750064027650115300,5.984115234375,-1.3160896301269531,-7.778507709503174,5.825212001800537
1750064027666076000,6.000075927734375,-1.7526216506958008,-7.838583469390869,5.626307964324951
1750064027682006000,6.016006103515625,-2.188645839691162,-7.969872951507568,5.278385162353516
1750064027697997300,6.031997314453125,-2.6228911876678467,-8.181068420410156,4.72873592376709
1750064027714019000,6.04801904296875,-2.9387762546539307,-8.464948654174805,3.984802722930908
1750064027729949200,6.06394921875,-2.9993560314178467,-8.786598205566406,3.1575188636779785
1750064027745940500,6.0799404296875,-2.724503993988037,-9.111492156982422,2.393364191055298
1750064027761962200,6.095962158203125,-2.2191197872161865,-9.359673500061035,1.9085007905960083
1750064027777922800,6.1119228515625,-1.7240426540374756,-9.484968185424805,1.7981854677200317
1750064027793944600,6.127944580078125,-1.4722200632095337,-9.513490676879883,1.8698796033859253
1750064027809874700,6.143874755859375,-1.4734569787979126,-9.505678176879883,1.9082531929016113
1750064027825866000,6.159865966796875,-1.6662380695343018,-9.48494815826416,1.8519665002822876
1750064027841887700,6.1758876953125,-1.9364912509918213,-9.449362754821777,1.7691587209701538
1750064027857879000,6.191879150390625,-2.16530179977417,-9.402679443359375,1.7525768280029297
1750064027873839600,6.207839599609375,-2.2465198040008545,-9.360623359680176,1.8714430332183838
1750064027889861400,6.223861328125,-2.18241024017334,-9.3355131149292,2.062934398651123
1750064027905822000,6.239822021484375,-2.086918592453003,-9.320798873901367,2.222130298614502
1750064027921813200,6.255813232421875,-2.028970718383789,-9.310940742492676,2.315180540084839
1750064027937774000,6.271774169921875,-1.999557614326477,-9.307042121887207,2.3560783863067627
1750064027953704200,6.2877041015625,-1.9716649055480957,-9.30907917022705,2.3714981079101562
1750064027969756400,6.30375634765625,-1.9409774541854858,-9.315826416015625,2.37031626701355
1750064027985717000,6.319717041015625,-1.919836401939392,-9.326330184936523,2.346104621887207
1750064028001647400,6.3356474609375,-1.8917816877365112,-9.352376937866211,2.263753652572632
1750064028017638400,6.351638427734375,-1.8694360256195068,-9.38902473449707,2.1264524459838867
1750064028033660200,6.36766015625,-1.8402081727981567,-9.431269645690918,1.9583604335784912
1750064028049590300,6.38359033203125,-1.79202139377594,-9.473139762878418,1.794072151184082
1750064028065581600,6.39958154296875,-1.7113614082336426,-9.51519775390625,1.6439775228500366
1750064028081603300,6.415603271484375,-1.6401158571243286,-9.548977851867676,1.5157395601272583
1750064028097594600,6.4315947265625,-1.5968022346496582,-9.574552536010742,1.3959046602249146
1750064028113555200,6.44755517578125,-1.5797698497772217,-9.59342098236084,1.281011700630188
1750064028129577000,6.463576904296875,-1.5739392042160034,-9.606568336486816,1.1861523389816284
1750064028145537500,6.47953759765625,-1.5667542219161987,-9.616697311401367,1.1112101078033447
1750064028161468000,6.495468017578125,-1.5521178245544434,-9.629496574401855,1.016926646232605
1750064028177459000,6.511458984375,-1.5345628261566162,-9.645284652709961,0.8854321837425232
1750064028193480700,6.527480712890625,-1.515394687652588,-9.662823677062988,0.709812581539154
1750064028209380400,6.54338037109375,-1.4858880043029785,-9.680851936340332,0.4936358630657196
1750064028225371600,6.55937158203125,-1.4546359777450562,-9.694884300231934,0.25234678387641907
1750064028241393400,6.575393310546875,-1.4330261945724487,-9.701363563537598,0.020425021648406982
1750064028257354000,6.59135400390625,-1.3949785232543945,-9.702543258666992,-0.29165101051330566
1750064028273284000,6.6072841796875,-1.272423505783081,-9.699122428894043,-0.6916182041168213
1750064028289305900,6.623305908203125,-1.0917646884918213,-9.685479164123535,-1.0816394090652466
1750064028305144600,6.63914453125,-0.8935036659240723,-9.657160758972168,-1.4530318975448608
1750064028321227300,6.655227294921875,-0.6923720240592957,-9.611079216003418,-1.821583867073059
1750064028337066000,6.67106591796875,-0.4822229743003845,-9.547072410583496,-2.1888949871063232
1750064028353026600,6.687026611328125,-0.27427229285240173,-9.46683406829834,-2.5444531440734863
1750064028369017900,6.703017822265625,-0.07305062562227249,-9.375452995300293,-2.8750572204589844
1750064028384978400,6.718978515625,0.11354045569896698,-9.272323608398438,-3.190847158432007
1750064028400908800,6.73490869140625,0.21992227435112,-9.171000480651855,-3.4662303924560547
1750064028416961000,6.7509609375,0.09113047271966934,-9.141632080078125,-3.5486128330230713
1750064028432952000,6.7669521484375,-0.33787819743156433,-9.223864555358887,-3.313088893890381
1750064028448913000,6.782912841796875,-0.8819108605384827,-9.30759048461914,-2.9599597454071045
1750064028464904200,6.798904296875,-1.2594389915466309,-9.330079078674316,-2.744777202606201
1750064028480925700,6.81492578125,-1.3103893995285034,-9.357431411743164,-2.625215530395508
1750064028496856000,6.83085595703125,-1.0065280199050903,-9.401129722595215,-2.60308575630188
1750064028512877800,6.8468779296875,-0.5796002149581909,-9.413957595825195,-2.685488224029541
1750064028528808000,6.862807861328125,-0.1559697389602661,-9.387322425842285,-2.832707166671753
1750064028544799000,6.878799072265625,0.2224561721086502,-9.33639144897461,-2.992100954055786
1750064028560820700,6.89482080078125,0.5500672459602356,-9.294997215270996,-3.077476739883423
1750064028576812000,6.91081201171875,0.8304121494293213,-9.284756660461426,-3.0453412532806396
1750064028592803300,6.92680322265625,1.0603338479995728,-9.295544624328613,-2.9392101764678955
1750064028608794400,6.94279443359375,1.26688814163208,-9.302690505981445,-2.8329029083251953
1750064028624785700,6.95878564453125,1.4932664632797241,-9.289429664611816,-2.7653284072875977
1750064028640777000,6.97477685546875,1.7443629503250122,-9.255340576171875,-2.73244571685791
1750064028656737500,6.990737548828125,1.9467674493789673,-9.218984603881836,-2.7186038494110107
1750064028672728800,7.006728759765625,2.012363910675049,-9.211645126342773,-2.6956183910369873
1750064028688659000,7.022658935546875,1.94794762134552,-9.233570098876953,-2.6677913665771484
1750064028704650200,7.038650146484375,1.8055448532104492,-9.272485733032227,-2.632754325866699
1750064028720641300,7.054641357421875,1.6103525161743164,-9.317303657531738,-2.6009631156921387
1750064028736602000,7.07060205078125,1.3666408061981201,-9.36336612701416,-2.5748910903930664
1750064028752623900,7.086623779296875,1.0978695154190063,-9.405132293701172,-2.5511841773986816
1750064028768615000,7.102614990234375,0.8230027556419373,-9.437521934509277,-2.5350048542022705
1750064028784606200,7.118606201171875,0.5561281442642212,-9.458290100097656,-2.530195951461792
1750064028800505900,7.134505859375,0.3104611933231354,-9.4684476852417,-2.5342674255371094
1750064028816497200,7.1504970703125,0.09456512331962585,-9.470393180847168,-2.544227361679077
1750064028832549400,7.16654931640625,-0.08286474645137787,-9.46640682220459,-2.559424638748169
1750064028848479500,7.1824794921875,-0.22485914826393127,-9.458827018737793,-2.578845262527466
1750064028864470800,7.198470703125,-0.3359411060810089,-9.449819564819336,-2.599703550338745
1750064028880492500,7.214492431640625,-0.42085811495780945,-9.441354751586914,-2.618035316467285
1750064028896483600,7.230483642578125,-0.4866326153278351,-9.433772087097168,-2.6339175701141357
1750064028912444400,7.2464443359375,-0.5407195687294006,-9.427494049072266,-2.6458237171173096
1750064028928466200,7.262466064453125,-0.5880079865455627,-9.424342155456543,-2.6469686031341553
1750064028944426800,7.2784267578125,-0.6280465722084045,-9.425376892089844,-2.6340527534484863
1750064028960418000,7.29441796875,-0.6598358154296875,-9.428772926330566,-2.6140496730804443
1750064028976409000,7.3104091796875,-0.6819348335266113,-9.433401107788086,-2.591585874557495
1750064028992430800,7.326430908203125,-0.6900398135185242,-9.441987037658691,-2.5579538345336914
1750064029008361200,7.342361328125,-0.6884720921516418,-9.457132339477539,-2.501810312271118
1750064029024352300,7.358352294921875,-0.6763461828231812,-9.475601196289062,-2.434324264526367
1750064029040374000,7.3743740234375,-0.6535884141921997,-9.489998817443848,-2.3839340209960938
1750064029056365300,7.390365234375,-0.6179261803627014,-9.50136947631836,-2.3478825092315674
1750064029072326000,7.406325927734375,-0.5582610964775085,-9.514220237731934,-2.310488700866699
1750064029088347600,7.42234765625,-0.4528004825115204,-9.524372100830078,-2.29166316986084
1750064029104308500,7.43830859375,-0.2923445403575897,-9.528138160705566,-2.302065372467041
1750064029120269000,7.45426904296875,-0.08942308276891708,-9.524642944335938,-2.333146572113037
1750064029136260400,7.47026025390625,0.12353929132223129,-9.5143461227417,-2.373265027999878
1750064029152282000,7.4862822265625,0.3212719261646271,-9.498538970947266,-2.4176340103149414
1750064029168212200,7.502212158203125,0.49024495482444763,-9.479646682739258,-2.4629950523376465
1750064029184203500,7.51820361328125,0.6261270046234131,-9.459297180175781,-2.5099892616271973
1750064029200225000,7.53422509765625,0.7333371043205261,-9.437753677368164,-2.5615234375
1750064029216185900,7.550185791015625,0.8289403319358826,-9.41401195526123,-2.619088888168335
1750064029232116000,7.566115966796875,0.9194494485855103,-9.388541221618652,-2.679607391357422
1750064029248137700,7.5821376953125,1.0017086267471313,-9.363225936889648,-2.7380623817443848
1750064029264098300,7.598098388671875,1.0639029741287231,-9.339787483215332,-2.794074773788452
1750064029279998000,7.613998046875,1.094617247581482,-9.321017265319824,-2.8444442749023438
1750064029295989200,7.6299892578125,1.0974807739257812,-9.307443618774414,-2.8874621391296387
1750064029312041500,7.64604150390625,1.075201153755188,-9.298564910888672,-2.924217700958252
1750064029327971600,7.6619716796875,1.0406845808029175,-9.292594909667969,-2.955512523651123
1750064029343963000,7.677962890625,0.9997534155845642,-9.289915084838867,-2.977980136871338
1750064029359984600,7.693984619140625,0.9568191170692444,-9.291893005371094,-2.9859066009521484
1750064029375976000,7.709975830078125,0.913188636302948,-9.296918869018555,-2.9839203357696533
1750064029391906000,7.725906005859375,0.8671119213104248,-9.305288314819336,-2.971550464630127
1750064029407927800,7.741927734375,0.8138771653175354,-9.318513870239258,-2.9450478553771973
1750064029423888400,7.757888427734375,0.751063883304596,-9.33676815032959,-2.90362548828125
1750064029439818800,7.77381884765625,0.6768605709075928,-9.359251976013184,-2.848971366882324
1750064029455779300,7.789779296875,0.5937181711196899,-9.38456916809082,-2.783480167388916
1750064029471801000,7.805801025390625,0.5019534826278687,-9.411905288696289,-2.7082250118255615
1750064029487792400,7.82179248046875,0.4038940966129303,-9.439370155334473,-2.627842664718628
1750064029503753000,7.8377529296875,0.25092121958732605,-9.47885513305664,-2.5017459392547607
1750064029527740000,7.861739990234375,0.14908990263938904,-9.503205299377441,-2.416044235229492
1750064029543700500,7.877700439453125,0.05348901450634003,-9.524660110473633,-2.3341751098632812
1750064029559661000,7.8936611328125,-0.032880526036024094,-9.543437004089355,-2.256575345993042
1750064029575652400,7.90965234375,-0.10615970194339752,-9.559796333312988,-2.183898687362671
1750064029591582500,7.92558251953125,-0.16622166335582733,-9.574117660522461,-2.116375684738159
1750064029607573800,7.94157373046875,-0.21709436178207397,-9.586788177490234,-2.053478479385376
1750064029623534300,7.957534423828125,-0.26404082775115967,-9.597017288208008,-1.9994854927062988
1750064029639464700,7.973464599609375,-0.3091302514076233,-9.60390853881836,-1.9595413208007812
1750064029655425300,7.98942529296875,0.09104513376951218,-9.393738746643066,-2.814208745956421
1750064029671477500,8.0054775390625,0.050631288439035416,-9.399258613586426,-2.796740770339966
1750064029687468800,8.02146875,0.021061493083834648,-9.399291038513184,-2.7970149517059326
1750064029703429400,8.037429443359375,0.007353285327553749,-9.39462947845459,-2.8126983642578125
1750064029719451100,8.053451171875,0.011404606513679028,-9.385234832763672,-2.8438773155212402
1750064029735412000,8.069411865234375,0.03345861658453941,-9.370298385620117,-2.8925371170043945
1750064029751403000,8.085403076171875,0.06855740398168564,-9.350903511047363,-2.9540340900421143
1750064029767333400,8.10133349609375,0.1135755255818367,-9.32739543914795,-3.0260844230651855
1750064029783294000,8.1172939453125,0.1676192581653595,-9.29989242553711,-3.107140064239502
1750064029799315700,8.133315673828125,0.22839900851249695,-9.269369125366211,-3.1932802200317383
1750064029815307000,8.14930712890625,0.3001929223537445,-9.237086296081543,-3.2797138690948486
1750064029831267600,8.165267578125,0.3828717768192291,-9.205965995788574,-3.3576765060424805
1750064029847319800,8.18131982421875,0.47299981117248535,-9.17724895477295,-3.424147605895996
1750064029863280600,8.19728076171875,0.5626116991043091,-9.152129173278809,-3.4774136543273926
1750064029879210800,8.213210693359375,0.6457359790802002,-9.129486083984375,-3.522200584411621
1750064029895202000,8.2292021484375,0.7173720598220825,-9.110152244567871,-3.5582191944122314
1750064029911193000,8.245193115234375,0.7748539447784424,-9.095097541809082,-3.584581136703491
1750064029927123200,8.261123291015625,0.8172212243080139,-9.083318710327148,-3.6049766540527344
1750064029951140600,8.285140625,0.8578706383705139,-9.064160346984863,-3.6435511112213135
1750064029967132000,8.3011318359375,0.8762035965919495,-9.04764461517334,-3.680053949356079
1750064029991088000,8.325088134765625,0.9012439250946045,-9.019134521484375,-3.7434463500976562
1750064030007079400,8.341079345703125,0.9234224557876587,-8.998019218444824,-3.7885780334472656
1750064030023040000,8.3570400390625,0.9498603343963623,-8.977022171020508,-3.8316102027893066
1750064030039031300,8.37303125,0.9766513109207153,-8.957234382629395,-3.8709845542907715
1750064030054992000,8.388991943359375,0.999973475933075,-8.941025733947754,-3.902374029159546
1750064030070922200,8.404922119140625,1.0158662796020508,-8.932209968566895,-3.918423891067505
1750064030086944000,8.420944091796875,1.026375412940979,-8.933768272399902,-3.9121286869049072
1750064030102904600,8.436904541015625,1.0331333875656128,-8.94853687286377,-3.876429319381714
1750064030118926300,8.45292626953125,1.0329887866973877,-8.973773956298828,-3.8176848888397217
1750064030134887000,8.468886962890625,1.0169658660888672,-9.008920669555664,-3.738386869430542
1750064030150878200,8.484878173828125,0.9795867800712585,-9.050971031188965,-3.6456432342529297
1750064030166869500,8.500869384765625,0.9179518818855286,-9.09843635559082,-3.542060136795044
1750064030182830000,8.516830078125,0.8340706825256348,-9.147648811340332,-3.4344189167022705
1750064030198821400,8.5328212890625,0.7396949529647827,-9.193775177001953,-3.331326484680176
1750064030214782000,8.548781982421875,0.6459299921989441,-9.23473834991455,-3.2361650466918945
1750064030230773200,8.564773193359375,0.5608294606208801,-9.271435737609863,-3.145848274230957
1750064030246733800,8.58073388671875,0.3691033720970154,-9.326423645019531,-3.0086495876312256
1750064030262694700,8.596694580078125,0.26453590393066406,-9.348825454711914,-2.949552059173584
1750064030286651000,8.62065087890625,0.18492227792739868,-9.324079513549805,-3.032776355743408
1750064030302642200,8.63664208984375,0.17783084511756897,-9.292851448059082,-3.1275696754455566
1750064030318664000,8.652663818359375,0.14976736903190613,-9.284539222717285,-3.1536202430725098
1750064030334655000,8.668655029296875,0.0886211171746254,-9.292732238769531,-3.131716251373291
1750064030350585300,8.68458544921875,0.03618541359901428,-9.295950889587402,-3.1232030391693115
1750064030366606800,8.70060693359375,-0.0050946930423378944,-9.29474925994873,-3.1269829273223877
1750064030382567700,8.716567626953125,-0.034959085285663605,-9.289201736450195,-3.1432297229766846
1750064030398467300,8.73246728515625,-0.05187690258026123,-9.278900146484375,-3.173281192779541
1750064030414458600,8.748458740234375,-0.05781622976064682,-9.265777587890625,-3.2112956047058105
1750064030430480100,8.764480224609375,-0.05205284431576729,-9.25135326385498,-3.2527108192443848
1750064030446471400,8.780471435546875,-0.032757192850112915,-9.235651969909668,-3.2972793579101562
1750064030462432300,8.796432373046875,-0.001714402693323791,-9.219707489013672,-3.3417651653289795
1750064030478392800,8.812392822265625,0.04272913560271263,-9.2046537399292,-3.382739305496216
1750064030494353700,8.828353759765625,0.09736322611570358,-9.190966606140137,-3.4186301231384277
1750064030510283800,8.84428369140625,0.15853695571422577,-9.178887367248535,-3.4486660957336426
1750064030526274800,8.86027490234375,0.2231464982032776,-9.167946815490723,-3.4740986824035645
1750064030542235600,8.876235595703125,0.28924423456192017,-9.157861709594727,-3.495758056640625
1750064030558196200,8.8921962890625,0.35620763897895813,-9.148313522338867,-3.5145223140716553
1750064030574126600,8.908126708984375,0.4234650731086731,-9.138007164001465,-3.5338215827941895
1750064030590056700,8.924056640625,0.4899614453315735,-9.126580238342285,-3.5546975135803223
1750064030606078500,8.940078369140625,0.4110603630542755,-9.361653327941895,-2.891514301300049
1750064030622039000,8.9560390625,0.33905601501464844,-9.461963653564453,-2.554731845855713
1750064030638030300,8.9720302734375,0.33936697244644165,-9.485614776611328,-2.4654300212860107
1750064030654021600,8.988021728515625,0.40863049030303955,-9.476483345031738,-2.4899182319641113
1750064030669951700,9.00395166015625,0.47077569365501404,-9.468871116638184,-2.507838487625122
1750064030685973500,9.019973388671875,0.5247077941894531,-9.46360969543457,-2.516974687576294
1750064030701934000,9.03593408203125,0.5690548419952393,-9.4619140625,-2.5137147903442383
1750064030717864200,9.0518642578125,0.6011509895324707,-9.465124130249023,-2.494082450866699
1750064030733855500,9.06785546875,0.6210457682609558,-9.47323989868164,-2.458136796951294
1750064030749907700,9.08390771484375,0.6296475529670715,-9.485169410705566,-2.4094624519348145
1750064030765837800,9.099837890625,0.6281330585479736,-9.4994478225708,-2.352942705154419
1750064030781829000,9.1158291015625,0.617154598236084,-9.515217781066895,-2.2913196086883545
1750064030797851000,9.131850830078125,0.5936304926872253,-9.5316162109375,-2.2285172939300537
1750064030813842200,9.14784228515625,0.5565332174301147,-9.548099517822266,-2.1666674613952637
1750064030829772300,9.163772216796875,0.5062941908836365,-9.564266204833984,-2.106863021850586
1750064030845763600,9.179763671875,0.4444558322429657,-9.5791015625,-2.0527212619781494
1750064030861724200,9.19572412109375,0.37644144892692566,-9.591756820678711,-2.006716251373291
1750064030877715500,9.211715576171875,0.30494624376296997,-9.602046966552734,-1.9692866802215576
1750064030893645600,9.2276455078125,0.23243747651576996,-9.60977840423584,-1.9412671327590942
1750064030909636900,9.243636962890625,0.13974866271018982,-9.426076889038086,-2.7018380165100098
1750064030925597400,9.259597412109375,0.12342238426208496,-9.328483581542969,-3.022343158721924
1750064030941558000,9.27555810546875,0.08609890937805176,-9.30772876739502,-3.0869336128234863
1750064030957488400,9.29148828125,0.015520810149610043,-9.308953285217285,-3.0844027996063232
1750064030973479400,9.3074794921875,-0.058361589908599854,-9.307640075683594,-3.08785080909729
1750064030989501200,9.323501220703125,0.13683833181858063,-9.274251937866211,-3.18432354927063
1750064031005492500,9.339492431640625,0.1628396213054657,-9.264503479003906,-3.211362361907959
1750064031021483800,9.35548388671875,0.08978314697742462,-9.257797241210938,-3.2335026264190674
1750064031037444400,9.3714443359375,0.024144846946001053,-9.249058723449707,-3.259559154510498
1750064031053496600,9.38749658203125,-0.03036941960453987,-9.238550186157227,-3.2891767024993896
1750064031069487900,9.40348779296875,-0.07123158872127533,-9.226783752441406,-3.321413516998291
1750064031085509600,9.419509521484375,-0.09764906018972397,-9.214393615722656,-3.3549697399139404
1750064031101439700,9.435439697265625,-0.11297756433486938,-9.202749252319336,-3.3862979412078857
1750064031117431000,9.45143115234375,-0.11742167919874191,-9.19249153137207,-3.413900852203369
1750064031133422000,9.467422119140625,-0.11117547750473022,-9.184667587280273,-3.4351019859313965
1750064031149352400,9.4833525390625,-0.09491933882236481,-9.180012702941895,-3.448005199432373
1750064031165374000,9.4993740234375,-0.06851765513420105,-9.178613662719727,-3.4523561000823975
1750064031181334800,9.515334716796875,-0.035414427518844604,-9.179973602294922,-3.4492387771606445
1750064031197295400,9.53129541015625,0.0036930092610418797,-9.183341979980469,-3.440436840057373
1750064031213256200,9.547256103515625,0.04553074762225151,-9.188199996948242,-3.42714524269104
1750064031229186300,9.563186279296875,0.3075748383998871,-9.304712295532227,-3.0819039344787598
1750064031245208000,9.5792080078125,0.5410942435264587,-9.396589279174805,-2.753495931625366
1750064031261168600,9.595168701171875,0.5989894270896912,-9.403436660766602,-2.7179038524627686
1750064031277160000,9.611159912109375,0.6482511758804321,-9.401299476623535,-2.713989496231079
1750064031293151200,9.627151123046875,0.6732190251350403,-9.395479202270508,-2.72802734375
1750064031309081300,9.643081298828125,0.7477788925170898,-9.38860034942627,-2.7322890758514404
1750064031325103000,9.65910302734375,0.8293313384056091,-9.379688262939453,-2.739354372024536
1750064031341063700,9.675063720703125,0.913324236869812,-9.3695068359375,-2.7474706172943115
1750064031356994000,9.690994140625,0.9987912774085999,-9.357924461364746,-2.7571840286254883
1750064031372985000,9.706985107421875,1.0854624509811401,-9.344780921936035,-2.7689778804779053
1750064031388976400,9.722976318359375,1.1700409650802612,-9.330680847167969,-2.782050132751465
1750064031404937000,9.73893701171875,1.2441279888153076,-9.316442489624023,-2.797579765319824
1750064031420897800,9.754897705078125,1.2985025644302368,-9.303744316101074,-2.815072774887085
1750064031436919600,9.77091943359375,1.3212913274765015,-9.295684814453125,-2.831047534942627
1750064031452880100,9.786880126953125,1.315140962600708,-9.29196834564209,-2.846072196960449
1750064031468841000,9.802841064453125,1.2909364700317383,-9.291130065917969,-2.8598575592041016
1750064031484832000,9.81883203125,1.2622328996658325,-9.292607307434082,-2.867860794067383
1750064031500823300,9.8348232421875,1.2385516166687012,-9.295574188232422,-2.8685646057128906
1750064031516723000,9.850722900390625,1.2245593070983887,-9.29891586303711,-2.8637428283691406
1750064031532714200,9.86671435546875,1.2150626182556152,-9.303369522094727,-2.8533051013946533
1750064031548735700,9.88273583984375,1.2006062269210815,-9.309749603271484,-2.838575601577759
1750064031564727000,9.89872705078125,1.1727356910705566,-9.318243980407715,-2.8223085403442383
1750064031580688000,9.91468798828125,1.1304694414138794,-9.328055381774902,-2.8071024417877197
1750064031596587500,9.93058740234375,1.0696972608566284,-9.338492393493652,-2.796191692352295
1750064031612578600,9.94657861328125,0.9958481788635254,-9.348505020141602,-2.7900052070617676
1750064031628569900,9.96256982421875,0.9158207178115845,-9.356781005859375,-2.789681911468506
1750064031644530400,9.978530517578125,0.8277636766433716,-9.36253547668457,-2.7978813648223877
1750064031660491300,9.9944912109375,0.7268787026405334,-9.365857124328613,-2.8147404193878174
1750064031676451800,10.010451904296875,0.6047580242156982,-9.366375923156738,-2.841771364212036
1750064031692412700,10.02641259765625,0.46443772315979004,-9.36463451385498,-2.873728036880493
1750064031708342800,10.0423427734375,0.3125251531600952,-9.360516548156738,-2.9074833393096924
1750064031724395000,10.05839501953125,0.1594499796628952,-9.353938102722168,-2.940889835357666
1750064031740386300,10.07438623046875,0.011656535789370537,-9.345261573791504,-2.9726004600524902
1750064031756408000,10.090407958984375,-0.1216273158788681,-9.336151123046875,-2.998650550842285
1750064031772338200,10.106338134765625,-0.07294073700904846,-9.350749015808105,-2.954418897628784
1750064031788360000,10.12235986328125,-0.17591245472431183,-9.345284461975098,-2.9673380851745605
1750064031804290000,10.1382900390625,0.023767244070768356,-9.378192901611328,-2.866934061050415
1750064031820281300,10.15428125,-0.055751699954271317,-9.37722396850586,-2.869661808013916
1750064031836303000,10.17030322265625,-0.12735913693904877,-9.380040168762207,-2.858147144317627
1750064031852294100,10.186294189453125,-0.19541619718074799,-9.388484954833984,-2.8264098167419434
1750064031868224500,10.202224609375,-0.2609972059726715,-9.40047836303711,-2.7808761596679688
1750064031884246000,10.21824609375,-0.3223603069782257,-9.414587020874023,-2.7261805534362793
1750064031900206800,10.234206787109375,-0.3741910457611084,-9.4310941696167,-2.6617393493652344
1750064031916137000,10.250136962890625,-0.4077893793582916,-9.449844360351562,-2.58931565284729
1750064031932128300,10.266128173828125,-0.4087836444377899,-9.470051765441895,-2.51424241065979
1750064031948119300,10.282119384765625,-0.3676905930042267,-9.490285873413086,-2.443286895751953
1750064031964110600,10.298110595703125,-0.2770388424396515,-9.508304595947266,-2.384488344192505
1750064031980071400,10.314071533203125,-0.15180325508117676,-9.522193908691406,-2.33990478515625
1750064031996001500,10.33000146484375,-0.015293139033019543,-9.530436515808105,-2.311044692993164
1750064032011992800,10.345992919921875,0.1109679788351059,-9.531543731689453,-2.3038547039031982
1750064032028045000,10.362045166015625,0.23361995816230774,-9.525300025939941,-2.3204526901245117
1750064032044005600,10.378005615234375,0.3989163339138031,-9.5088472366333,-2.364973783493042
1750064032060027400,10.39402734375,0.6183642745018005,-9.48120403289795,-2.427922248840332
1750064032076049200,10.410049072265625,0.8580471873283386,-9.445608139038086,-2.4929161071777344
1750064032092040200,10.426040283203125,1.0788838863372803,-9.405954360961914,-2.5562527179718018
1750064032108031500,10.442031494140625,1.2578120231628418,-9.364456176757812,-2.6258862018585205
1750064032124022800,10.458022705078125,1.3754775524139404,-9.322481155395508,-2.714738607406616
1750064032140013800,10.474013916015625,1.4331755638122559,-9.284807205200195,-2.8122520446777344
1750064032156035600,10.49003564453125,1.463593602180481,-9.253876686096191,-2.8972465991973877
1750064032171966000,10.505966064453125,1.5044095516204834,-9.230770111083984,-2.94958233833313
1750064032187957000,10.52195703125,1.5579344034194946,-9.21473217010498,-2.9718592166900635
1750064032203917800,10.537917724609375,1.6081297397613525,-9.205689430236816,-2.97314453125
1750064032219878400,10.55387841796875,1.6309939622879028,-9.201723098754883,-2.9729676246643066
1750064032235900200,10.569900146484375,1.6238023042678833,-9.203093528747559,-2.9726614952087402
1750064032251861000,10.585861083984375,1.6026191711425781,-9.209907531738281,-2.963041067123413
1750064032267821600,10.601821533203125,1.579310417175293,-9.220471382141113,-2.942634105682373
1750064032283873800,10.617873779296875,1.5533133745193481,-9.23515796661377,-2.9102394580841064
1750064032299834600,10.633834716796875,1.520033359527588,-9.253426551818848,-2.8694941997528076
1750064032315764700,10.6497646484375,1.4704705476760864,-9.275107383728027,-2.8249802589416504
1750064032331755800,10.665755859375,1.4033843278884888,-9.299309730529785,-2.7791669368743896
1750064032347747000,10.6817470703125,1.325307846069336,-9.325215339660645,-2.7302610874176025
1750064032363738400,10.69773828125,0.6978110074996948,-9.463224411010742,-2.4760591983795166
1750064032379699000,10.713698974609375,0.6082387566566467,-9.481698989868164,-2.4285471439361572
1750064032403686000,10.737685791015625,0.44001713395118713,-9.5065336227417,-2.3669848442077637
1750064032419677000,10.753677001953125,0.31616517901420593,-9.517644882202148,-2.341980457305908
1750064032435637800,10.7696376953125,0.19752982258796692,-9.522846221923828,-2.3338325023651123
1750064032451598300,10.785598388671875,0.09618979692459106,-9.523595809936523,-2.3371529579162598
1750064032467528700,10.80152880859375,0.026109058409929276,-9.521232604980469,-2.348583221435547
1750064032483519700,10.817519775390625,-0.016648059710860252,-9.516889572143555,-2.3662004470825195
1750064032499480600,10.83348046875,-0.041843071579933167,-9.511387825012207,-2.3879148960113525
1750064032515502300,10.84950244140625,-0.05513327568769455,-9.506203651428223,-2.4082021713256836
1750064032531463000,10.865462890625,-0.05931275337934494,-9.501874923706055,-2.4251320362091064
1750064032547393000,10.88139306640625,-0.057148706167936325,-9.498617172241211,-2.437913656234741
1750064032563414800,10.897414794921875,-0.04829341918230057,-9.496740341186523,-2.4453959465026855
1750064032579375600,10.913375732421875,-0.03287950158119202,-9.495266914367676,-2.4513723850250244
1750064032595336200,10.929336181640625,0.4826672077178955,-9.617669105529785,-1.8541455268859863
1750064032611327500,10.945327392578125,0.6014689207077026,-9.640595436096191,-1.6933845281600952
1750064032627318500,10.961318603515625,0.6187515258789062,-9.637760162353516,-1.7032711505889893
1750064032643249000,10.977248779296875,0.6359325647354126,-9.628358840942383,-1.749491572380066
1750064032659270700,10.993270751953125,0.6558110117912292,-9.6170654296875,-1.803433895111084
1750064032675261700,11.00926171875,0.6697326302528381,-9.603967666625977,-1.8669995069503784
1750064032691253000,11.0252529296875,0.675245463848114,-9.590120315551758,-1.934948444366455
1750064032707274800,11.041274658203125,0.26466435194015503,-9.667752265930176,-1.623246192932129
1750064032723265800,11.057265869140625,0.05517229065299034,-9.69265365600586,-1.4899042844772339
1750064032739257000,11.073257080078125,-0.14705950021743774,-9.703063011169434,-1.413979172706604
1750064032755248400,11.089248291015625,-0.3581719994544983,-9.696358680725098,-1.4222265481948853
1750064032771239400,11.105239501953125,-0.45732393860816956,-9.682766914367676,-1.4850172996520996
1750064032787230700,11.121230712890625,-0.518179714679718,-9.672196388244629,-1.5331395864486694
1750064032803160800,11.137160888671875,-0.5974047780036926,-9.65857982635498,-1.5891352891921997
1750064032819121700,11.15312158203125,-0.6899799704551697,-9.642436981201172,-1.6485533714294434
1750064032835112700,11.16911279296875,-0.7977322340011597,-9.623246192932129,-1.7108956575393677
1750064032851073500,11.185073486328125,-0.91871178150177,-9.601980209350586,-1.7687065601348877
1750064032867095300,11.20109521484375,-1.0521321296691895,-9.578605651855469,-1.8203684091567993
1750064032883086300,11.21708642578125,-1.1930943727493286,-9.552766799926758,-1.8685773611068726
1750064032899047200,11.233047119140625,-1.3351922035217285,-9.52430248260498,-1.9171111583709717
1750064032915069000,11.24906884765625,-1.466991901397705,-9.49355697631836,-1.9724849462509155
1750064032931060000,11.26506005859375,-1.215804100036621,-9.48495864868164,-2.1743431091308594
1750064032947051300,11.28105126953125,-1.315868854522705,-9.458104133605957,-2.232295274734497
1750064032963042600,11.29704248046875,-1.3931849002838135,-9.433760643005371,-2.287705898284912
1750064032979033600,11.31303369140625,-1.4458630084991455,-9.41431999206543,-2.3346195220947266
1750064032995025000,11.32902490234375,-1.4773025512695312,-9.40105152130127,-2.3681640625
1750064033010985700,11.34498583984375,-1.4942505359649658,-9.392916679382324,-2.3897147178649902
1750064033026976800,11.360976806640625,-1.4985637664794922,-9.390016555786133,-2.398395299911499
1750064033042907100,11.3769072265625,-1.4913767576217651,-9.392258644104004,-2.3940865993499756
1750064033058928600,11.3929287109375,-1.4715971946716309,-9.399415016174316,-2.3781936168670654
1750064033074920000,11.408919921875,-1.43325936794281,-9.411886215209961,-2.352139472961426
1750064033090880800,11.424880859375,-1.3727216720581055,-9.428847312927246,-2.3201053142547607
1750064033106871800,11.440871826171875,-1.2943850755691528,-9.44865608215332,-2.2842721939086914
1750064033122802000,11.456802001953125,-1.2013243436813354,-9.470235824584961,-2.245403289794922
1750064033138823700,11.47282373046875,-1.0931942462921143,-9.492444038391113,-2.2065393924713135
1750064033154815000,11.48881494140625,-0.9727631211280823,-9.514511108398438,-2.1675398349761963
1750064033170775600,11.504775634765625,-0.8471563458442688,-9.535015106201172,-2.1298434734344482
1750064033186706000,11.520705810546875,-0.7235749959945679,-9.552763938903809,-2.095601797103882
1750064033202697000,11.536697021484375,-0.6086328625679016,-9.56788444519043,-2.0629007816314697
1750064033218657800,11.55265771484375,-0.6571828126907349,-9.444326400756836,-2.5579674243927
1750064033234679600,11.568679443359375,-0.8150617480278015,-9.369604110717773,-2.777873992919922
1750064033250670600,11.584670654296875,-0.7604640126228333,-9.386629104614258,-2.735562562942505
1750064033266601000,11.60060107421875,-0.7272132039070129,-9.399441719055176,-2.7003836631774902
1750064033282592000,11.616592041015625,-0.7117878198623657,-9.408063888549805,-2.67433762550354
1750064033298552800,11.632552734375,-0.7095222473144531,-9.412985801696777,-2.657571792602539
1750064033314543900,11.6485439453125,-0.7200031280517578,-9.41431999206543,-2.650012731552124
1750064033330504700,11.664504638671875,-0.7415596842765808,-9.412724494934082,-2.6497347354888916
1750064033346434800,11.680434814453125,-0.772589921951294,-9.408390998840332,-2.6562557220458984
1750064033362487000,11.696487060546875,-0.8124117851257324,-9.401742935180664,-2.6678872108459473
1750064033378448000,11.71244775390625,-0.8560359477996826,-9.39363956451416,-2.682751417160034
1750064033394469600,11.7284697265625,-0.8972215056419373,-9.385101318359375,-2.699124336242676
1750064033410430200,11.74443017578125,-0.7494795322418213,-9.443646430969238,-2.5350022315979004
1750064033426421500,11.76042138671875,-0.7770311236381531,-9.440937995910645,-2.536785364151001
1750064033442351600,11.7763515625,-0.6516691446304321,-9.507233619689941,-2.314788818359375
1750064033458373400,11.792373291015625,-0.5619120001792908,-9.551652908325195,-2.149556875228882
1750064033474364400,11.808364501953125,-0.5815194845199585,-9.555557250976562,-2.1268692016601562
1750064033490355700,11.824355712890625,-0.5998559594154358,-9.558913230895996,-2.1065921783447266
1750064033506347000,11.840346923828125,-0.6167442798614502,-9.56094741821289,-2.092442035675049
1750064033522246700,11.85624658203125,-0.6335727572441101,-9.561141967773438,-2.0865161418914795
1750064033538237700,11.87223779296875,-0.5241055488586426,-9.534849166870117,-2.2321219444274902
1750064033554229000,11.88822900390625,-0.5404471755027771,-9.53190803527832,-2.240769624710083
1750064033570189800,11.90418994140625,-0.5489444136619568,-9.528861045837402,-2.2516298294067383
1750064033586180900,11.920180908203125,-0.5463384389877319,-9.526324272155762,-2.262983560562134
1750064033602172200,11.936172119140625,-0.5360751152038574,-9.5237398147583,-2.2762718200683594
1750064033618163500,11.95216357421875,-0.2942664325237274,-9.432761192321777,-2.6658639907836914
1750064033634093600,11.968093505859375,-0.16954481601715088,-9.376023292541504,-2.8691210746765137
1750064033650054100,11.98405419921875,-0.14074337482452393,-9.372293472290039,-2.882828950881958
1750064033666076000,12.000075927734375,-0.10053674131631851,-9.366353988647461,-2.9037368297576904
1750064033682067200,12.016067138671875,-0.04908011108636856,-9.358048439025879,-2.9317076206207275
1750064033698027800,12.03202783203125,0.013676204718649387,-9.34775447845459,-2.9647440910339355
1750064033713958100,12.047958251953125,0.08595146238803864,-9.334807395935059,-3.0040626525878906
1750064033729949200,12.06394921875,0.16155658662319183,-9.320511817932129,-3.045058012008667
1750064033745971000,12.079970947265625,0.23747093975543976,-9.305932998657227,-3.0844132900238037
1750064033761962200,12.095962158203125,0.11848916858434677,-9.32632827758789,-3.0291852951049805
1750064033777922800,12.1119228515625,-0.10456088185310364,-9.364940643310547,-2.9081530570983887
1750064033793944600,12.127944580078125,-0.2838318645954132,-9.389687538146973,-2.8148958683013916
1750064033809905400,12.143905517578125,-0.4436472952365875,-9.40361499786377,-2.746924638748169
1750064033825835500,12.15983544921875,-0.5908948183059692,-9.407252311706543,-2.7064456939697266
1750064033841857300,12.175857177734375,-0.546355664730072,-9.404657363891602,-2.7247567176818848
1750064033857848300,12.191848388671875,-0.5142480731010437,-9.40263843536377,-2.7379465103149414
1750064033873870000,12.2078701171875,-0.502758800983429,-9.399859428405762,-2.7496018409729004
1750064033889861400,12.223861328125,-0.5133300423622131,-9.39517879486084,-2.7636022567749023
1750064033905822000,12.239822021484375,-0.5441882610321045,-9.387833595275879,-2.782594680786133
1750064033921813200,12.255813232421875,-0.5935970544815063,-9.377988815307617,-2.8055944442749023
1750064033937774000,12.271774169921875,-0.658013105392456,-9.366107940673828,-2.8308050632476807
1750064033953795600,12.287795654296875,-0.7364318370819092,-9.352907180786133,-2.8550333976745605
1750064033969787000,12.303786865234375,-0.8179209232330322,-9.339953422546387,-2.875185489654541
1750064033985717000,12.319717041015625,-0.8960369825363159,-9.32774829864502,-2.8914780616760254
1750064034001708300,12.335708251953125,-0.9661154747009277,-9.317167282104492,-2.9030017852783203
1750064034017699600,12.351699462890625,-0.8298895955085754,-9.376708984375,-2.7493650913238525
1750064034033721300,12.367721435546875,-0.5774633884429932,-9.4618501663208,-2.5120315551757812
1750064034049712400,12.38371240234375,-0.38396790623664856,-9.512835502624512,-2.351365327835083
1750064034065642500,12.399642578125,-0.22726459801197052,-9.542502403259277,-2.2493093013763428
1750064034081695000,12.415695068359375,-0.17605316638946533,-9.555869102478027,-2.196537494659424
1750064034097655600,12.431655517578125,-0.19375760853290558,-9.563246726989746,-2.1626765727996826
1750064034113677300,12.44767724609375,-0.1938549280166626,-9.571195602416992,-2.127216100692749
1750064034129668600,12.463668701171875,-0.17741671204566956,-9.579524993896484,-2.0908398628234863
1750064034145598700,12.4795986328125,-0.1458154171705246,-9.588629722595215,-2.0511820316314697
1750064034161651000,12.49565087890625,-0.09800737351179123,-9.59881591796875,-2.0058722496032715
1750064034177611500,12.511611572265625,-0.038451604545116425,-9.609920501708984,-1.954062581062317
1750064034193633300,12.52763330078125,0.030202247202396393,-9.622203826904297,-1.892799973487854
1750064034209624600,12.54362451171875,0.10541647672653198,-9.634839057922363,-1.8246015310287476
1750064034225554700,12.5595546875,0.1856234073638916,-9.646466255187988,-1.7554519176483154
1750064034241576400,12.575576416015625,0.2697969079017639,-9.655970573425293,-1.6910992860794067
1750064034257567700,12.591567626953125,0.3578197658061981,-9.662491798400879,-1.636648416519165
1750064034273558800,12.607558837890625,0.1496431529521942,-9.52820110321045,-2.315469264984131
1750064034289550000,12.623550048828125,-0.04749605804681778,-9.416699409484863,-2.7375025749206543
1750064034305541400,12.639541259765625,-0.2279866337776184,-9.331327438354492,-3.007451057434082
1750064034321471500,12.655471435546875,-0.16399039328098297,-9.337891578674316,-2.991198778152466
1750064034337462800,12.671462890625,-0.10739976167678833,-9.339818000793457,-2.9877490997314453
1750064034353453800,12.687453857421875,-0.06484437733888626,-9.339221000671387,-2.9908413887023926
1750064034369414700,12.70341455078125,-0.05469195917248726,-9.337841033935547,-2.995354175567627
1750064034385436400,12.7194365234375,-0.07301905751228333,-9.336400985717773,-2.999446153640747
1750064034401427500,12.735427490234375,-0.1100558266043663,-9.334175109863281,-3.0052382946014404
1750064034417357800,12.75135791015625,-0.15460136532783508,-9.331186294555664,-3.0125515460968018
1750064034433318400,12.767318359375,-0.20251549780368805,-9.32708740234375,-3.0223824977874756
1750064034449279000,12.783279052734375,-0.25101590156555176,-9.320731163024902,-3.0383148193359375
1750064034465300700,12.79930078125,-0.2978447377681732,-9.313292503356934,-3.056842088699341
1750064034481353000,12.81535302734375,-0.3128688633441925,-9.417397499084473,-2.7175652980804443
1750064034497344300,12.83134423828125,-0.22403496503829956,-9.539397239685059,-2.2627620697021484
1750064034513366000,12.847365966796875,-0.17823533713817596,-9.5716552734375,-2.1265151500701904
1750064034529357300,12.863357421875,-0.20528028905391693,-9.562736511230469,-2.1638710498809814
1750064034545287400,12.879287353515625,-0.2232297956943512,-9.554031372070312,-2.2002432346343994
1750064034561309200,12.89530908203125,-0.22726503014564514,-9.54564094543457,-2.235957384109497
1750064034577269800,12.911269775390625,-0.20790888369083405,-9.538464546203613,-2.2682301998138428
1750064034593322000,12.927322021484375,-0.16835486888885498,-9.533687591552734,-2.29148268699646
1750064034609313300,12.943313232421875,-0.11549773067235947,-9.531307220458984,-2.304612398147583
1750064034625304600,12.9593046875,-0.04961158707737923,-9.530780792236328,-2.309152126312256
1750064034641234700,12.975234619140625,0.02248305082321167,-9.533918380737305,-2.2965874671936035
1750064034657256400,12.99125634765625,0.09199585765600204,-9.540210723876953,-2.268545389175415
1750064034673278200,13.0072783203125,0.15440408885478973,-9.547310829162598,-2.2350480556488037
1750064034689238800,13.02323876953125,0.18570144474506378,-9.553489685058594,-2.2060706615448
1750064034713195000,13.047195068359375,0.15761077404022217,-9.558805465698242,-2.1851255893707275
1750064034737182000,13.071181884765625,0.10148410499095917,-9.56049633026123,-2.1810555458068848
1750064034753173200,13.08717333984375,0.08240356296300888,-9.559056282043457,-2.188170909881592
1750064034769164300,13.103164306640625,0.08115677535533905,-9.555140495300293,-2.2052409648895264
1750064034785094400,13.119094482421875,0.09012100100517273,-9.547072410583496,-2.239567995071411
1750064034801116200,13.1351162109375,0.10109627991914749,-9.53429126739502,-2.2929186820983887
1750064034817107500,13.151107421875,0.10241232812404633,-9.519865036010742,-2.3520379066467285
1750064034833129200,13.167129150390625,0.08790770918130875,-9.506340980529785,-2.4066927433013916
1750064034849120500,13.18312060546875,0.05725158378481865,-9.494887351989746,-2.4523961544036865
1750064034865081000,13.1990810546875,0.014196283183991909,-9.485703468322754,-2.488304376602173
1750064034889098500,13.223098388671875,-0.06463935226202011,-9.475262641906738,-2.5269775390625
1750064034905059000,13.23905908203125,-0.11757131665945053,-9.467558860778809,-2.5538041591644287
1750064034921080800,13.255080810546875,-0.16394728422164917,-9.459882736206055,-2.579561471939087
1750064034945037000,13.279037109375,0.0031061493791639805,-9.452290534973145,-2.612396240234375
1750064034960998000,13.294997802734375,0.058147069066762924,-9.453028678894043,-2.609074592590332
1750064034976989000,13.310989013671875,0.02541150525212288,-9.456534385681152,-2.5968644618988037
1750064034993010700,13.3270107421875,-0.012148703448474407,-9.459592819213867,-2.585801601409912
1750064035009002000,13.343001953125,-0.059165891259908676,-9.462325096130371,-2.5751311779022217
1750064035024962600,13.358962646484375,-0.11736848950386047,-9.464704513549805,-2.5643680095672607
1750064035040984300,13.374984375,-0.1856757253408432,-9.46550178527832,-2.5573761463165283
1750064035056945200,13.390945068359375,-0.25405076146125793,-9.464088439941406,-2.556734561920166
1750064035072936200,13.406936279296875,-0.3043827712535858,-9.460525512695312,-2.564415693283081
1750064035088927500,13.422927490234375,-0.3174620270729065,-9.455248832702637,-2.582223653793335
1750064035104888300,13.438888427734375,-0.2941665053367615,-9.449519157409668,-2.605855941772461
1750064035120940500,13.4549404296875,-0.2480640858411789,-9.44168472290039,-2.638833999633789
1750064035136931600,13.470931640625,-0.18605858087539673,-9.430973052978516,-2.681889057159424
1750064035152923000,13.4869228515625,-0.11147242039442062,-9.420122146606445,-2.7238292694091797
1750064035168914200,13.5029140625,-0.02497369796037674,-9.411023139953613,-2.757251501083374
1750064035184905200,13.5189052734375,0.07035013288259506,-9.403624534606934,-2.7815942764282227
1750064035200927000,13.534927001953125,0.17181260883808136,-9.39721393585205,-2.7987961769104004
1750064035216887800,13.5508876953125,0.2720242142677307,-9.391490936279297,-2.810037851333618
1750064035232818000,13.56681787109375,0.36508768796920776,-9.38747501373291,-2.8129007816314697
1750064035248778500,13.582778564453125,0.6502239108085632,-9.508526802062988,-2.3098745346069336
1750064035264769800,13.598769775390625,0.7019330859184265,-9.538683891296387,-2.1659111976623535
1750064035280700000,13.614699951171875,0.7417483329772949,-9.542522430419922,-2.1355273723602295
1750064035296660700,13.63066064453125,0.7682412266731262,-9.550195693969727,-2.0914034843444824
1750064035312651800,13.64665185546875,0.7812433242797852,-9.56084156036377,-2.0372414588928223
1750064035328582100,13.66258203125,0.7760586142539978,-9.573652267456055,-1.978209137916565
1750064035344604000,13.67860400390625,0.7463900446891785,-9.588345527648926,-1.9175355434417725
1750064035360656100,13.69465625,0.6949498057365417,-9.603350639343262,-1.8609391450881958
1750064035376616700,13.71061669921875,0.6364882588386536,-9.61767578125,-1.8070909976959229
1750064035392638500,13.726638427734375,0.5894687175750732,-9.63056755065918,-1.753592848777771
1750064035408629800,13.742629638671875,0.5634685754776001,-9.642217636108398,-1.697206735610962
1750064035424559900,13.758559814453125,0.5627648234367371,-9.653716087341309,-1.6307862997055054
1750064035440581600,13.77458154296875,0.5703408122062683,-9.667436599731445,-1.5445953607559204
1750064035456572700,13.79057275390625,0.5688058733940125,-9.683137893676758,-1.443495512008667
1750064035472594400,13.806594482421875,0.5476794838905334,-9.701229095458984,-1.3253744840621948
1750064035488555300,13.82255517578125,0.5007488131523132,-9.719306945800781,-1.2061150074005127
1750064035504515800,13.838515869140625,0.42680153250694275,-9.736268997192383,-1.0923877954483032
1750064035520446000,13.854446044921875,0.3375234007835388,-9.752537727355957,-0.9718401432037354
1750064035536448800,13.87044873046875,0.2415536791086197,-9.766454696655273,-0.8534852862358093
1750064035552409300,13.886409423828125,0.1548077017068863,-9.776366233825684,-0.7543997168540955
1750064035568431000,13.90243115234375,0.08450491726398468,-9.782267570495605,-0.6859118938446045
1750064035584452900,13.918452880859375,0.03731178492307663,-9.784454345703125,-0.6583890914916992
1750064035600444200,13.934444091796875,0.011862287297844887,-9.784576416015625,-0.6575213670730591
1750064035616404700,13.95040478515625,0.020734161138534546,-9.7822904586792,-0.6904720664024353
1750064035632334800,13.9663349609375,0.06082301214337349,-9.777368545532227,-0.7548354864120483
1750064035648326100,13.982326171875,0.11935118585824966,-9.769681930541992,-0.8422983884811401
1750064035664348000,13.998347900390625,0.18205460906028748,-9.758868217468262,-0.9496092796325684
1750064035688273700,14.022273681640625,0.2648778557777405,-9.736008644104004,-1.144709587097168
1750064035704265000,14.038264892578125,0.3075730800628662,-9.716720581054688,-1.2888402938842773
1750064035720195000,14.054195068359375,0.3443324863910675,-9.695161819458008,-1.4337645769119263
1750064035736186400,14.070186279296875,0.38553953170776367,-9.671148300170898,-1.578177571296692
1750064035752208000,14.086207763671876,0.4434925615787506,-9.573573112487793,-2.0785603523254395
1750064035768138200,14.10213818359375,0.4765969514846802,-9.48133373260498,-2.459176778793335
1750064035792064000,14.12606396484375,0.5750894546508789,-9.431676864624023,-2.6235785484313965
1750064035808177200,14.14217724609375,0.6488526463508606,-9.401802062988281,-2.712102174758911
1750064035824138000,14.158137939453125,0.7102257013320923,-9.375144004821777,-2.787947416305542
1750064035840129000,14.17412890625,0.7544389367103577,-9.35163688659668,-2.854489326477051
1750064035856120300,14.190120361328125,0.7799509763717651,-9.330954551696777,-2.9146809577941895
1750064035872142000,14.20614208984375,0.7881289720535278,-9.312698364257812,-2.970334529876709
1750064035888133400,14.22213330078125,0.7835837602615356,-9.297476768493652,-3.018825054168701
1750064035904094000,14.238093994140625,0.7710381746292114,-9.2868070602417,-3.054689884185791
1750064035920085200,14.254085205078125,0.7568266987800598,-9.280284881591797,-3.077972412109375
1750064035936045800,14.2700458984375,0.7446668744087219,-9.277688026428223,-3.088747024536133
1750064035952006700,14.286006591796875,0.7354881167411804,-9.279881477355957,-3.084352493286133
1750064035967967200,14.30196728515625,0.7269850969314575,-9.287117958068848,-3.0645291805267334
1750064035983958500,14.31795849609375,0.7140536904335022,-9.299009323120117,-3.031329870223999
1750064035999980300,14.333980224609375,0.6918991804122925,-9.314634323120117,-2.988187551498413
1750064036015940900,14.34994091796875,0.6586527228355408,-9.33343505859375,-2.9365906715393066
1750064036031962600,14.365962646484375,0.6174684762954712,-9.35448169708252,-2.877987861633301
1750064036047954000,14.381953857421875,0.5729466080665588,-9.376976013183594,-2.8132617473602295
1750064036079936300,14.413936279296875,0.48602294921875,-9.424696922302246,-2.666318655014038
1750064036095927600,14.429927490234375,0.2816658914089203,-9.493823051452637,-2.4409797191619873
1750064036111949300,14.44594921875,0.22843408584594727,-9.507638931274414,-2.3922853469848633
1750064036143840000,14.477840087890625,0.23180969059467316,-9.4578218460083,-2.5819079875946045
1750064036159861800,14.49386181640625,0.27063480019569397,-9.419529914855957,-2.714707851409912
1750064036175822600,14.509822509765625,0.3118114471435547,-9.382349014282227,-2.836315870285034
1750064036191844000,14.525843994140626,0.2990460693836212,-9.388402938842773,-2.817595958709717
1750064036207835400,14.54183544921875,0.2935656011104584,-9.388493537902832,-2.8178751468658447
1750064036223765500,14.557765625,0.2812099754810333,-9.39201831817627,-2.807370901107788
1750064036239817700,14.573817626953126,0.27341771125793457,-9.392118453979492,-2.8077971935272217
1750064036255778600,14.589778564453125,0.27097266912460327,-9.389472961425781,-2.816873550415039
1750064036271708700,14.605708740234375,0.2773679196834564,-9.384824752807617,-2.8317015171051025
1750064036295695600,14.629695556640625,0.492790549993515,-9.322073936462402,-3.0044097900390625
1750064036311625700,14.645625732421875,0.5163976550102234,-9.316096305847168,-3.018951177597046
1750064036327586300,14.66158642578125,0.5449830889701843,-9.309946060180664,-3.0328714847564697
1750064036343608000,14.677608154296875,0.5755956768989563,-9.304242134094238,-3.0446956157684326
1750064036359599400,14.693599365234375,0.5569015145301819,-9.338767051696777,-2.940695285797119
1750064036375560000,14.709559814453126,0.5196709632873535,-9.37351131439209,-2.8350677490234375
1750064036391520800,14.725520751953125,0.48698505759239197,-9.39681339263916,-2.7628121376037598
1750064036407512000,14.741511962890625,0.5175198912620544,-9.392609596252441,-2.771538257598877
1750064036423503000,14.757503173828125,0.5458154678344727,-9.389715194702148,-2.7759220600128174
1750064036439464000,14.7734638671875,0.5714841485023499,-9.388094902038574,-2.7762339115142822
1750064036455424500,14.789424560546875,0.5930056571960449,-9.387540817260742,-2.773591995239258
1750064036471385300,14.80538525390625,0.6093395352363586,-9.388005256652832,-2.7684755325317383
1750064036487376400,14.82137646484375,0.620326817035675,-9.38968563079834,-2.7603251934051514
1750064036503367700,14.83736767578125,0.6265753507614136,-9.392905235290527,-2.747934579849243
1750064036519297800,14.8532978515625,0.3163034915924072,-9.461719512939453,-2.5585551261901855
1750064036535289000,14.8692890625,0.22897593677043915,-9.476357460021973,-2.5132863521575928
1750064036551310800,14.885310791015625,0.19201017916202545,-9.47974967956543,-2.5035736560821533
1750064036567271400,14.901271484375,0.16182079911231995,-9.477566719055176,-2.5139505863189697
1750064036583232300,14.917232177734375,0.13603226840496063,-9.470006942749023,-2.5437872409820557
1750064036599254000,14.93325390625,0.11911971867084503,-9.4597806930542,-2.5823967456817627
1750064036615214600,14.949214599609375,0.11016542464494705,-9.46096420288086,-2.5784494876861572
1750064036631266800,14.965266845703125,0.10120061784982681,-9.460186004638672,-2.581672191619873
1750064036655253800,14.989253662109375,0.09092354774475098,-9.45411205291748,-2.604205846786499
1750064036671184000,15.005183837890625,0.08730477839708328,-9.44730281829834,-2.62892484664917
1750064036687175000,15.0211748046875,0.08554770052433014,-9.43976879119873,-2.6559131145477295
1750064036703196700,15.03719677734375,0.08373510092496872,-9.432230949401855,-2.682614803314209
1750064036719188000,15.05318798828125,0.08123159408569336,-9.424888610839844,-2.7083699703216553
1750064036735148500,15.0691484375,0.08110065758228302,-9.417546272277832,-2.733795166015625
1750064036751109400,15.085109375,0.08780220150947571,-9.410120010375977,-2.759047031402588
1750064036767100700,15.1011005859375,0.10353109985589981,-9.402944564819336,-2.7828619480133057
1750064036783122200,15.1171220703125,0.12946107983589172,-9.396875381469727,-2.802208423614502
1750064036799113500,15.133113525390625,0.1601473093032837,-9.39289379119873,-2.8139445781707764
1750064036815104800,15.149104736328125,0.19106151163578033,-9.391990661621094,-2.8150293827056885
1750064036831035000,15.165034912109375,0.21877017617225647,-9.394268035888672,-2.8053977489471436
1750064036847026200,15.181026123046875,0.24262334406375885,-9.399394035339355,-2.7862002849578857
1750064036862956300,15.196956298828125,0.26364508271217346,-9.407228469848633,-2.7577054500579834
1750064036878947600,15.212947509765625,0.28388768434524536,-9.417082786560059,-2.721829652786255
1750064036894908200,15.228908203125,0.3030313551425934,-9.427987098693848,-2.6817171573638916
1750064036910869000,15.244868896484375,0.31825873255729675,-9.439471244812012,-2.6392197608947754
1750064036926860000,15.260860107421875,0.32666999101638794,-9.450541496276855,-2.5982589721679688
1750064036942851300,15.276851318359375,0.32792556285858154,-9.459954261779785,-2.563619613647461
1750064036958781400,15.292781494140625,0.32957157492637634,-9.464638710021973,-2.546053647994995
1750064036974772700,15.308772705078125,0.3290911018848419,-9.469513893127441,-2.5279228687286377
1750064036990763800,15.324763671875,0.32835400104522705,-9.474785804748535,-2.508192300796509
1750064037006724600,15.340724609375,0.31625673174858093,-9.478452682495117,-2.495861053466797
1750064037022746400,15.356746337890625,0.299846887588501,-9.474403381347656,-2.513199806213379
1750064037038737400,15.3727373046875,0.2826297879219055,-9.460236549377441,-2.567964792251587
1750064037054667800,15.388667724609375,0.2689075469970703,-9.438097953796387,-2.649601459503174
1750064037070689500,15.404689453125,0.264350026845932,-9.410298347473145,-2.747140645980835
1750064037086650000,15.420650146484375,0.2745937705039978,-9.378050804138184,-2.854322671890259
1750064037102672000,15.436671875,0.2684627175331116,-9.37527847290039,-2.8639957904815674
1750064037118632400,15.452632568359375,0.27010640501976013,-9.368326187133789,-2.886505126953125
1750064037134623700,15.468623779296875,0.2803098261356354,-9.359289169311523,-2.914708137512207
1750064037150615000,15.484614990234375,0.291452556848526,-9.351371765136719,-2.9389328956604004
1750064037166575600,15.50057568359375,0.3089250922203064,-9.341885566711426,-2.9671757221221924
1750064037182505700,15.516505615234376,0.33012861013412476,-9.331586837768555,-2.9971489906311035
1750064037198527500,15.532527587890625,0.3525795042514801,-9.321669578552246,-3.0253169536590576
1750064037214518800,15.548518798828125,0.3739975690841675,-9.312960624694824,-3.0494747161865234
1750064037230449000,15.564448974609375,0.39250120520591736,-9.306170463562012,-3.067824602127075
1750064037246409700,15.58040966796875,0.3347702920436859,-9.424965858459473,-2.6885576248168945
1750064037262431500,15.596431396484375,0.3185071647167206,-9.453560829162598,-2.588271141052246
1750064037278422500,15.612422607421875,0.32375675439834595,-9.451750755310059,-2.5942227840423584
1750064037294413800,15.628413818359375,0.32329264283180237,-9.452323913574219,-2.5921926498413086
1750064037310344000,15.644343994140625,0.3172738254070282,-9.455156326293945,-2.5825862884521484
1750064037326335200,15.660335205078125,0.3082119822502136,-9.459685325622559,-2.567049026489258
1750064037342387500,15.676387451171875,0.2989473044872284,-9.465716361999512,-2.545830249786377
1750064037358378800,15.692378662109375,0.29173019528388977,-9.47280502319336,-2.5201661586761475
1750064037382335000,15.7163349609375,0.27350538969039917,-9.50004768371582,-2.4175758361816406
1750064037398326300,15.732326171875,0.266165554523468,-9.504928588867188,-2.3991472721099854
1750064037414317300,15.7483173828125,0.26281389594078064,-9.492570877075195,-2.447944164276123
1750064037430247400,15.764247314453126,0.2717430591583252,-9.467952728271484,-2.540553092956543
1750064037446208300,15.780208251953125,0.28860536217689514,-9.43909740447998,-2.6439642906188965
1750064037462199600,15.796199462890625,0.29738253355026245,-9.425167083740234,-2.6922459602355957
1750064037478221000,15.812220947265626,0.29823943972587585,-9.423989295959473,-2.6962735652923584
1750064037494182000,15.828181884765625,0.3020557761192322,-9.418999671936035,-2.713231086730957
1750064037510081500,15.84408154296875,0.30760347843170166,-9.41077995300293,-2.740985631942749
1750064037526072800,15.86007275390625,0.31575697660446167,-9.399615287780762,-2.7781171798706055
1750064037542125000,15.876125,0.3251490890979767,-9.390327453613281,-2.8082785606384277
1750064037558116000,15.8921162109375,0.3358493447303772,-9.383232116699219,-2.830643653869629
1750064037574107400,15.908107421875,0.35024258494377136,-9.374919891357422,-2.856323719024658
1750064037590068200,15.924068115234375,0.3673988878726959,-9.366204261779785,-2.882643461227417
1750064037606028800,15.94002880859375,0.3860252797603607,-9.357633590698242,-2.9079344272613525
1750064037622020000,15.95602001953125,0.3868681490421295,-9.358553886413574,-2.9048588275909424
1750064037637980700,15.971980712890625,0.35976269841194153,-9.37830638885498,-2.8440001010894775
1750064037653910800,15.987910888671875,0.3293459415435791,-9.405908584594727,-2.755145788192749
1750064037669902000,16.003902099609373,0.30314239859580994,-9.431928634643555,-2.6678128242492676
1750064037685893400,16.019893310546873,0.2964993119239807,-9.441264152526855,-2.635340690612793
1750064037701823500,16.035823486328123,0.3038683831691742,-9.438461303710938,-2.644519090652466
1750064037717845200,16.05184521484375,0.3069499731063843,-9.438314437866211,-2.6446950435638428
1750064037733805800,16.067805908203123,0.30500879883766174,-9.440667152404785,-2.636509895324707
1750064037749797000,16.083797119140623,0.2993529438972473,-9.44485092163086,-2.622130870819092
1750064037765757700,16.0997578125,0.2532943785190582,-9.47827434539795,-2.503709554672241
1750064037781688000,16.11568798828125,0.23212358355522156,-9.492722511291504,-2.4504520893096924
1750064037797709800,16.131709716796873,0.22283612191677094,-9.498590469360352,-2.4284780025482178
1750064037813670400,16.14767041015625,0.21847441792488098,-9.498851776123047,-2.427858829498291
1750064037829631000,16.163630859375,0.22610534727573395,-9.486045837402344,-2.476731538772583
1750064037845622300,16.179622314453123,0.2436293065547943,-9.464509963989258,-2.556190252304077
1750064037861674500,16.195674560546873,0.2530243396759033,-9.453853607177734,-2.5944268703460693
1750064037877604600,16.2116044921875,0.25293782353401184,-9.453324317932129,-2.596356153488159
1750064037893596000,16.227595947265623,0.2579840123653412,-9.448762893676758,-2.612416982650757
1750064037909617700,16.24361767578125,0.26663726568222046,-9.441680908203125,-2.6370389461517334
1750064037925578200,16.259578125,0.2775421142578125,-9.433173179626465,-2.6661996841430664
1750064037941569500,16.275569580078123,0.2840636074542999,-9.429868698120117,-2.6771774291992188
1750064037957530400,16.2915302734375,0.2925467789173126,-9.425629615783691,-2.691152334213257
1750064037973521400,16.307521484375,0.33885669708251953,-9.384666442871094,-2.8255274295806885
1750064037989543200,16.323543212890623,0.3536778390407562,-9.376147270202637,-2.8518729209899902
1750064038005504000,16.33950390625,0.36492636799812317,-9.3717679977417,-2.8648204803466797
1750064038021434000,16.35543408203125,0.36777591705322266,-9.376930236816406,-2.8475112915039062
1750064038045420800,16.3794208984375,0.3535510003566742,-9.399433135986328,-2.7741777896881104
1750064038061412000,16.395412109375,0.34820613265037537,-9.407893180847168,-2.746034860610962
1750064038085368300,16.419368408203123,0.34991878271102905,-9.410758972167969,-2.7359793186187744
1750064038101298700,16.435298583984373,0.3452788293361664,-9.415312767028809,-2.720853805541992
1750064038117320200,16.4513203125,0.33878421783447266,-9.420879364013672,-2.702338457107544
1750064038133311500,16.4673115234375,0.332975834608078,-9.426962852478027,-2.6817729473114014
1750064038149241600,16.48324169921875,0.3290969431400299,-9.43254280090332,-2.662562370300293
1750064038165233000,16.49923291015625,0.3263327181339264,-9.437278747558594,-2.646069288253784
1750064038181254700,16.515254638671873,0.3236018419265747,-9.441446304321289,-2.631500720977783
1750064038197246000,16.531245849609373,0.3202899396419525,-9.445261001586914,-2.618175506591797
1750064038213237000,16.547237060546873,0.3164297640323639,-9.448633193969727,-2.6064553260803223
1750064038229228300,16.563228271484373,0.3129425048828125,-9.451216697692871,-2.5974924564361572
1750064038245280500,16.579280517578123,0.3108522593975067,-9.452540397644043,-2.5929248332977295
1750064038261241000,16.595240966796876,0.31086453795433044,-9.451600074768066,-2.596341609954834
1750064038277262800,16.611262939453123,0.3122293949127197,-9.448594093322754,-2.6071033477783203
1750064038293223700,16.6272236328125,0.31438568234443665,-9.444409370422363,-2.621966600418091
1750064038309123300,16.643123291015623,0.31753218173980713,-9.439353942871094,-2.639727830886841
1750064038325114400,16.6591142578125,0.3215443193912506,-9.434082984924316,-2.658024549484253
1750064038341136100,16.67513623046875,0.32658934593200684,-9.429549217224121,-2.6734488010406494
1750064038357035800,16.691035888671873,0.33190321922302246,-9.425935745239258,-2.685516357421875
1750064038373057500,16.7070576171875,0.3373030424118042,-9.422895431518555,-2.6954922676086426
1750064038389048800,16.723048828125,0.3428747057914734,-9.420047760009766,-2.7047226428985596
1750064038405040000,16.7390400390625,0.3479752242565155,-9.417596817016602,-2.712592124938965
1750064038421061600,16.7550615234375,0.3518202304840088,-9.416372299194336,-2.7163538932800293
1750064038437053000,16.771052978515623,0.3540659546852112,-9.416238784790039,-2.7165164947509766
1750064038453013800,16.787013671875,0.3546300232410431,-9.417586326599121,-2.7117724418640137
1750064038468944000,16.80294384765625,0.35366907715797424,-9.420476913452148,-2.701838493347168
1750064038484935200,16.81893505859375,0.3519049882888794,-9.423955917358398,-2.6899068355560303
1750064038500987400,16.8349873046875,0.3494616746902466,-9.427484512329102,-2.677835702896118
1750064038516978400,16.850978515625,0.34646016359329224,-9.430757522583008,-2.6666786670684814
1750064038532969700,16.8669697265625,0.3435603380203247,-9.433671951293945,-2.6567304134368896
1750064038548961000,16.8829609375,0.34134969115257263,-9.436168670654297,-2.6481285095214844
1750064038564921600,16.898921630859373,0.34021511673927307,-9.438053131103516,-2.641549825668335
1750064038580913000,16.914912841796873,0.3399561941623688,-9.438899040222168,-2.6385605335235596
1750064038596873500,16.93087353515625,0.3406131863594055,-9.438628196716309,-2.6394476890563965
1750064038612834300,16.946834228515623,0.3419190049171448,-9.437362670898438,-2.643801689147949
1750064038628856000,16.96285595703125,0.34379473328590393,-9.4352388381958,-2.651125431060791
1750064038644847000,16.97884716796875,0.3462555706501007,-9.432849884033203,-2.659296989440918
1750064038660808000,16.994807861328123,0.3494459092617035,-9.430541038513184,-2.66705584526062
1750064038676860200,17.010860107421873,0.35252341628074646,-9.428359031677246,-2.6743555068969727
1750064038692820700,17.02682080078125,0.35494741797447205,-9.426301002502441,-2.6812806129455566
1750064038708812000,17.04281201171875,0.35709086060523987,-9.424575805664062,-2.68705153465271
1750064038724803300,17.05880322265625,0.35906070470809937,-9.423259735107422,-2.691399574279785
1750064038740733400,17.0747333984375,0.36000585556030273,-9.422083854675293,-2.6953940391540527
1750064038756755200,17.090755126953123,0.35990825295448303,-9.421100616455078,-2.698838233947754
1750064038772715800,17.1067158203125,0.35941842198371887,-9.420602798461914,-2.7006402015686035
1750064038796672000,17.130672119140623,0.3578963279724121,-9.420781135559082,-2.7002220153808594
1750064038812663300,17.146663330078123,0.3570961058139801,-9.421069145202637,-2.699321746826172
1750064038828685000,17.16268505859375,0.35568100214004517,-9.421741485595703,-2.6971609592437744
1750064038844645600,17.178645751953123,0.3538450002670288,-9.422789573669434,-2.6937384605407715
1750064038860606500,17.1946064453125,0.35184478759765625,-9.423919677734375,-2.6900458335876465
1750064038876628200,17.210628173828123,0.3497825860977173,-9.42502212524414,-2.6864492893218994
1750064038892588800,17.2265888671875,0.3475818634033203,-9.425979614257812,-2.6833717823028564
1750064038908610600,17.242610595703123,0.3453168272972107,-9.426407814025879,-2.6821577548980713
1750064038924601900,17.258601806640623,0.3445937931537628,-9.426289558410645,-2.6826696395874023
1750064038940562400,17.2745625,0.3460533320903778,-9.426106452941895,-2.6831233501434326
1750064038956553700,17.2905537109375,0.3494546711444855,-9.425615310668945,-2.6844098567962646
1750064038972514300,17.306514404296873,0.3538677990436554,-9.424887657165527,-2.6863820552825928
1750064038988536000,17.3225361328125,0.3580605685710907,-9.4241943359375,-2.688260555267334
1750064039004527400,17.33852734375,0.3617641031742096,-9.42386531829834,-2.6889231204986572
1750064039020457500,17.35445751953125,0.3656470775604248,-9.423733711242676,-2.688859224319458
1750064039036479200,17.370479248046873,0.3695020079612732,-9.423819541931152,-2.688028573989868
1750064039052439800,17.386439697265626,0.3724725544452667,-9.424230575561523,-2.6861796379089355
1750064039068461600,17.402461669921873,0.3739467263221741,-9.424983978271484,-2.683326482772827
1750064039084422400,17.41842236328125,0.3748305141925812,-9.425684928894043,-2.680737018585205
1750064039100352500,17.4343525390625,0.3761930465698242,-9.426443099975586,-2.6778788566589355
1750064039116374300,17.450374267578123,0.37916940450668335,-9.427131652832031,-2.6750328540802
1750064039132334800,17.4663349609375,0.38349252939224243,-9.427688598632812,-2.6724560260772705
1750064039148265200,17.48226513671875,0.3877367675304413,-9.428102493286133,-2.6703827381134033
1750064039164256300,17.49825634765625,0.3904781639575958,-9.428377151489258,-2.6690144538879395
1750064039180278000,17.514278076171873,0.3888169527053833,-9.428117752075195,-2.670170545578003
1750064039196269300,17.530269287109373,0.3843459486961365,-9.427481651306152,-2.673060655593872
1750064039212199400,17.546199462890623,0.3793330788612366,-9.426664352416992,-2.6766602993011475
1750064039228129500,17.562129638671873,0.37572014331817627,-9.425873756408691,-2.679957389831543
1750064039244090400,17.57809033203125,0.372663676738739,-9.42513656616211,-2.682966709136963
1750064039260112100,17.594112060546873,0.36770519614219666,-9.423994064331055,-2.687662124633789
1750064039276103200,17.610103271484373,0.36203885078430176,-9.42245864868164,-2.6938071250915527
1750064039292064000,17.62606396484375,0.3574754595756531,-9.420461654663086,-2.7013907432556152
1750064039308024600,17.642024658203123,0.355332612991333,-9.418407440185547,-2.7088217735290527
1750064039323985400,17.6579853515625,0.35559800267219543,-9.416570663452148,-2.715174436569214
1750064039339946000,17.673946044921873,0.3572913408279419,-9.414835929870605,-2.720959424972534
1750064039355998200,17.689998291015623,0.35913726687431335,-9.413331031799316,-2.7259161472320557
1750064039371959000,17.705958984375,0.3599936068058014,-9.412187576293945,-2.7297465801239014
1750064039387980800,17.721980712890623,0.3599836528301239,-9.411576271057129,-2.731856107711792
1750064039403971800,17.737971923828123,0.3600502908229828,-9.411418914794922,-2.732390880584717
1750064039419902200,17.753902099609373,0.36176061630249023,-9.411885261535645,-2.7305593490600586
1750064039435923700,17.769923828125,0.3650222420692444,-9.413077354431152,-2.726013422012329
1750064039451884500,17.785884521484373,0.36986324191093445,-9.414962768554688,-2.7188358306884766
1750064039467845000,17.80184521484375,0.37545886635780334,-9.417377471923828,-2.7096879482269287
1750064039483836400,17.81783642578125,0.3808738887310028,-9.420304298400879,-2.6987428665161133
1750064039499827700,17.83382763671875,0.3858236074447632,-9.423016548156738,-2.68855357170105
1750064039515788300,17.849788330078123,0.3903454840183258,-9.425413131713867,-2.6794817447662354
1750064039531749000,17.8657490234375,0.39474165439605713,-9.427587509155273,-2.6711742877960205
1750064039547770600,17.8817705078125,0.3993324935436249,-9.429619789123535,-2.663308620452881
1750064039563701000,17.897700927734373,0.40312662720680237,-9.431455612182617,-2.6562247276306152
1750064039579722800,17.91372265625,0.4056266248226166,-9.432737350463867,-2.6512889862060547
1750064039595713800,17.9297138671875,0.4060790538787842,-9.43310546875,-2.6499083042144775
1750064039611674600,17.945674560546873,0.4038613736629486,-9.43184757232666,-2.6547224521636963
1750064039627635200,17.96163525390625,0.40109190344810486,-9.429247856140137,-2.6643614768981934
1750064039643626500,17.97762646484375,0.39979660511016846,-9.426283836364746,-2.6750199794769287
1750064039659648300,17.993648193359373,0.39990007877349854,-9.423623085021973,-2.6843605041503906
1750064039675639300,18.009639404296873,0.39969491958618164,-9.421050071716309,-2.6934101581573486
1750064039691630600,18.025630615234373,0.39744800329208374,-9.418522834777832,-2.7025675773620605
1750064039707560700,18.041560791015623,0.39359891414642334,-9.41655158996582,-2.7099854946136475
1750064039723582500,18.05758251953125,0.38938218355178833,-9.415249824523926,-2.715114116668701
1750064039739604200,18.073604248046873,0.385127454996109,-9.414944648742676,-2.7167770862579346
1750064039755564800,18.089564697265626,0.37965866923332214,-9.415528297424316,-2.715529680252075
1750064039771556000,18.10555615234375,0.3721317648887634,-9.416220664978027,-2.7141666412353516
1750064039787517000,18.121516845703123,0.3634592294692993,-9.416722297668457,-2.7136037349700928
1750064039803508000,18.137508056640623,0.3555898070335388,-9.416804313659668,-2.7143590450286865
1750064039819468800,18.15346875,0.35193127393722534,-9.416528701782227,-2.7157957553863525
1750064039835459800,18.1694599609375,0.3547954261302948,-9.416168212890625,-2.7166717052459717
1750064039851390200,18.18539013671875,0.3629068434238434,-9.416093826293945,-2.715855360031128
1750064039867320300,18.2013203125,0.3716962933540344,-9.416121482849121,-2.714571475982666
1750064039883311600,18.2173115234375,0.37861764430999756,-9.415771484375,-2.7148327827453613
1750064039899302700,18.233302734375,0.38409051299095154,-9.414916038513184,-2.717027187347412
1750064039915232800,18.249232666015626,0.3900391757488251,-9.414015769958496,-2.7192938327789307
1750064039931193600,18.265193603515623,0.3981488347053528,-9.413288116455078,-2.720639705657959
1750064039947123700,18.281123779296873,0.4074859917163849,-9.412705421447754,-2.7212777137756348
1750064039963115000,18.297114990234373,0.4157797694206238,-9.412725448608398,-2.7199504375457764
1750064039979167200,18.313167236328123,0.42087799310684204,-9.413460731506348,-2.716618061065674
1750064039995158500,18.329158447265623,0.4220774173736572,-9.41459846496582,-2.7124850749969482
1750064040011088600,18.345088623046873,0.41930094361305237,-9.416278839111328,-2.707076072692871
1750064040027018800,18.361018798828123,0.4135708808898926,-9.418683052062988,-2.6995880603790283
1750064040043010000,18.377010009765623,0.4062783718109131,-9.421174049377441,-2.6919922828674316
1750064040059001000,18.3930009765625,0.39857321977615356,-9.423114776611328,-2.686347007751465
1750064040074962000,18.4089619140625,0.39137715101242065,-9.424530982971191,-2.682435989379883
1750064040090922500,18.424922607421873,0.3853963315486908,-9.425604820251465,-2.679523468017578
1750064040106852900,18.440852783203123,0.38002750277519226,-9.426234245300293,-2.6780736446380615
1750064040122844000,18.456843994140623,0.3747439980506897,-9.426481246948242,-2.677947521209717
1750064040138774300,18.472774169921873,0.3690788149833679,-9.426513671875,-2.678618907928467
1750064040162791400,18.49679150390625,0.36178866028785706,-9.425384521484375,-2.683586835861206
1750064040178782700,18.51278271484375,0.35978665947914124,-9.424004554748535,-2.688699722290039
1750064040194743300,18.528743408203123,0.3609212338924408,-9.422564506530762,-2.693584442138672
1750064040210704100,18.5447041015625,0.36351943016052246,-9.421143531799316,-2.6982009410858154
1750064040226726000,18.560725830078123,0.3666740953922272,-9.419668197631836,-2.7029240131378174
1750064040242686500,18.5766865234375,0.3704875111579895,-9.418280601501465,-2.7072341442108154
1750064040258677800,18.592677734375,0.37523090839385986,-9.416871070861816,-2.711480140686035
1750064040274638300,18.608638427734373,0.3822650611400604,-9.4153413772583,-2.7158091068267822
1750064040290629600,18.624629638671873,0.39013737440109253,-9.414361000061035,-2.7180893421173096
1750064040306651400,18.6406513671875,0.3970183730125427,-9.41430950164795,-2.717268705368042
1750064040322612000,18.656612060546873,0.40139997005462646,-9.415010452270508,-2.7141923904418945
1750064040338633700,18.6726337890625,0.4034428596496582,-9.41653823852539,-2.7085890769958496
1750064040354563800,18.688563720703126,0.40397828817367554,-9.4188232421875,-2.7005481719970703
1750064040370585600,18.704585693359373,0.4035772979259491,-9.42137336730957,-2.691701650619507
1750064040386577000,18.720576904296873,0.4023100435733795,-9.424151420593262,-2.682147741317749
1750064040402568200,18.736568115234373,0.4001859128475189,-9.426989555358887,-2.672475576400757
1750064040418590000,18.75258984375,0.3974526822566986,-9.429519653320312,-2.663940906524658
1750064040434550500,18.768550537109373,0.39415305852890015,-9.431286811828613,-2.658172607421875
1750064040450541800,18.784541748046873,0.39051324129104614,-9.432347297668457,-2.65494441986084
1750064040466563600,18.8005634765625,0.3858288824558258,-9.432531356811523,-2.654975652694702
1750064040482493700,18.81649365234375,0.3778437376022339,-9.430105209350586,-2.664724349975586
1750064040498484700,18.832484619140626,0.3722551167011261,-9.427774429321289,-2.6737375259399414
1750064040514445600,18.848445556640623,0.36767420172691345,-9.424906730651855,-2.6844613552093506
1750064040530406100,18.86440625,0.36490416526794434,-9.421546936035156,-2.6966071128845215
1750064040546428000,18.880427978515623,0.3642518222332001,-9.418363571166992,-2.707794666290283
1750064040562419200,18.896419189453123,0.36464112997055054,-9.415714263916016,-2.716937780380249
1750064040578349300,18.912349365234373,0.36535775661468506,-9.413421630859375,-2.7247726917266846
1750064040594401500,18.928401611328123,0.3662596642971039,-9.411211013793945,-2.7322826385498047
1750064040610362400,18.9443623046875,0.3671656847000122,-9.409391403198242,-2.7384181022644043
1750064040626384100,18.960384033203123,0.3681529462337494,-9.408597946166992,-2.7410097122192383
1750064040642314200,18.976314208984373,0.3692886531352997,-9.408884048461914,-2.739879846572876
1750064040658305300,18.99230517578125,0.3699555993080139,-9.410468101501465,-2.7343437671661377
1750064040674235600,19.008235595703123,0.36968204379081726,-9.41299057006836,-2.725682020187378
1750064040690226700,19.024226806640623,0.3680126368999481,-9.41550064086914,-2.717226028442383
1750064040706248400,19.04024853515625,0.3652507960796356,-9.417659759521484,-2.710106611251831
1750064040722209300,19.056209228515623,0.3625853657722473,-9.41969108581543,-2.7033932209014893
1750064040738200300,19.072200439453123,0.3621984124183655,-9.421503067016602,-2.697127342224121
1750064040754100000,19.088099853515626,0.36466744542121887,-9.422845840454102,-2.692098617553711
1750064040770121700,19.104121826171873,0.3688561022281647,-9.423978805541992,-2.6875545978546143
1750064040786082600,19.12008251953125,0.37217679619789124,-9.425058364868164,-2.683311700820923
1750064040802104300,19.136104248046873,0.3726595938205719,-9.425467491149902,-2.681807518005371
1750064040818065000,19.15206494140625,0.3717740476131439,-9.42524242401123,-2.6827194690704346
1750064040834086700,19.168086669921873,0.3715238869190216,-9.424707412719727,-2.684636116027832
1750064040850047200,19.184047119140626,0.3731406629085541,-9.423792839050293,-2.687621831893921
1750064040865977600,19.1999775390625,0.37592941522598267,-9.422625541687012,-2.6913204193115234
1750064040881968600,19.21596875,0.37750527262687683,-9.421667098999023,-2.6944541931152344
1750064040906016500,19.2400166015625,0.3757721781730652,-9.419981002807617,-2.700587034225464
1750064040921977300,19.255977294921873,0.3739262521266937,-9.418652534484863,-2.705465793609619
1750064040937907500,19.271907470703123,0.37391048669815063,-9.417349815368652,-2.7100024223327637
1750064040953898800,19.287898681640623,0.3756488561630249,-9.415950775146484,-2.7146196365356445
1750064040969889800,19.303889892578123,0.376894474029541,-9.414630889892578,-2.7190258502960205
1750064040985881000,19.319881103515623,0.37682080268859863,-9.414009094238281,-2.7211861610412598
1750064041001841700,19.335841552734376,0.3779056966304779,-9.413649559020996,-2.7222728729248047
1750064041017863400,19.351863525390623,0.37860769033432007,-9.413223266601562,-2.723651885986328
1750064041033854700,19.367854736328123,0.37998074293136597,-9.41246223449707,-2.726088762283325
1750064041049815300,19.383815185546876,0.38188043236732483,-9.411298751831055,-2.729841709136963
1750064041065776000,19.399776123046873,0.38502222299575806,-9.4096040725708,-2.7352380752563477
1750064041081767400,19.415767333984373,0.38972997665405273,-9.407672882080078,-2.7412030696868896
1750064041097819600,19.431819580078123,0.39504680037498474,-9.40632152557373,-2.745077610015869
1750064041113810700,19.447810791015623,0.3982090651988983,-9.405561447143555,-2.747223138809204
1750064041129741000,19.463740966796873,0.3967021405696869,-9.405031204223633,-2.749253273010254
1750064041145671200,19.479671142578123,0.3914186656475067,-9.404732704162598,-2.7510340213775635
1750064041161631700,19.4956318359375,0.38501930236816406,-9.404603958129883,-2.752380847930908
1750064041177653500,19.511653564453123,0.38051557540893555,-9.404450416564941,-2.7535288333892822
1750064041193644800,19.527644775390623,0.3777402639389038,-9.404489517211914,-2.753775119781494
1750064041209605400,19.54360546875,0.37509822845458984,-9.404947280883789,-2.7525787353515625
1750064041225535700,19.55953564453125,0.37105390429496765,-9.405801773071289,-2.750201940536499
1750064041241557200,19.57555712890625,0.3659469485282898,-9.406831741333008,-2.747364044189453
1750064041257579000,19.5915791015625,0.36079907417297363,-9.408125877380371,-2.743614673614502
1750064041273570300,19.6075703125,0.3565010726451874,-9.409208297729492,-2.740454912185669
1750064041289531000,19.62353076171875,0.3535241186618805,-9.409948348999023,-2.7383038997650146
1750064041305552600,19.639552734375,0.3512830436229706,-9.410425186157227,-2.736950635910034
1750064041321544000,19.6555439453125,0.35066404938697815,-9.41032600402832,-2.7373712062835693
1750064041337504500,19.67150439453125,0.3519231081008911,-9.409002304077148,-2.7417550086975098
1750064041353526300,19.6875263671875,0.3553127348423004,-9.40636920928955,-2.7503409385681152
1750064041369517600,19.703517578125,0.36127546429634094,-9.402377128601074,-2.763184070587158
1750064041385539300,19.719539306640623,0.37146133184432983,-9.397449493408203,-2.7785494327545166
1750064041401469400,19.735469482421873,0.3854272961616516,-9.392870903015137,-2.7920970916748047
1750064041417460700,19.751460693359373,0.401958167552948,-9.389469146728516,-2.8011972904205322
1750064041441386500,19.775386474609373,0.4226180911064148,-9.386601448059082,-2.8077547550201416
1750064041457408300,19.791408203125,0.4285615086555481,-9.38629150390625,-2.807894706726074
1750064041473399300,19.8073994140625,0.4296329617500305,-9.386818885803223,-2.8059699535369873
1750064041489360100,19.823360107421873,0.4299035966396332,-9.387627601623535,-2.8032162189483643
1750064041505320700,19.83932080078125,0.43103522062301636,-9.388723373413086,-2.7993688583374023
1750064041529338000,19.863338134765623,0.4310574233531952,-9.39362621307373,-2.782867908477783
1750064041545390300,19.879390380859373,0.4234738349914551,-9.399958610534668,-2.7625820636749268
1750064041561351200,19.89535107421875,0.4064332842826843,-9.40832233428955,-2.736544132232666
1750064041577311700,19.911311767578123,0.38395315408706665,-9.417455673217773,-2.7082266807556152
1750064041593333500,19.92733349609375,0.36250820755958557,-9.425721168518066,-2.6823043823242188
1750064041609324800,19.94332470703125,0.34574413299560547,-9.432475090026855,-2.660687208175659
1750064041625285400,19.959285400390623,0.33378246426582336,-9.43800163269043,-2.6425585746765137
1750064041641276700,19.975276611328123,0.32506605982780457,-9.44210147857666,-2.6289637088775635
1750064041657298400,19.99129833984375,0.31943830847740173,-9.443962097167969,-2.622964859008789
1750064041673289500,20.00728955078125,0.31680211424827576,-9.444150924682617,-2.6225996017456055
1750064041689250300,20.023250244140623,0.31755146384239197,-9.443270683288574,-2.625683069229126
1750064041705180400,20.039180419921873,0.3201362192630768,-9.442749977111816,-2.6272339820861816
1750064041721171700,20.055171630859373,0.32454758882522583,-9.44271469116211,-2.6268227100372314
1750064041737193200,20.071193115234376,0.3323579728603363,-9.441935539245605,-2.62864351272583
1750064041753184500,20.0871845703125,0.342447429895401,-9.440387725830078,-2.632909059524536
1750064041769145300,20.103145263671873,0.3694576025009155,-9.437076568603516,-2.641113758087158
1750064041785106000,20.11910595703125,0.38422727584838867,-9.438772201538086,-2.6329362392425537
1750064041801097200,20.13509716796875,0.3875327706336975,-9.446784973144531,-2.6035516262054443
1750064041817027300,20.15102734375,0.3745300769805908,-9.45986557006836,-2.557551622390747
1750064041833018600,20.1670185546875,0.3513052463531494,-9.47485065460205,-2.5048317909240723
1750064041849009700,20.183009765625,0.326402872800827,-9.486531257629395,-2.4636495113372803
1750064041865001000,20.1990009765625,0.32052549719810486,-9.490117073059082,-2.4505796432495117
1750064041880931000,20.21493115234375,0.3137882947921753,-9.494050979614258,-2.4361724853515625
1750064041896952800,20.230952880859373,0.3077613115310669,-9.498294830322266,-2.4203500747680664
1750064041912944000,20.246944091796873,0.3024708032608032,-9.502124786376953,-2.4059414863586426
1750064041928874200,20.262874267578123,0.29792729020118713,-9.504401206970215,-2.397498607635498
1750064041944804400,20.278804443359373,0.29374387860298157,-9.504779815673828,-2.396512985229492
1750064041960826000,20.294826171875,0.29001346230506897,-9.502732276916504,-2.4050731658935547
1750064041976848000,20.310847900390623,0.2879612147808075,-9.498465538024902,-2.4221184253692627
1750064041992839200,20.326839111328123,0.2878197431564331,-9.492293357849121,-2.4462084770202637
1750064042008799700,20.3427998046875,0.28812193870544434,-9.484567642211914,-2.4759538173675537
1750064042024760600,20.358760498046873,0.28588029742240906,-9.475811958312988,-2.509512186050415
1750064042040721200,20.37472119140625,0.2787473797798157,-9.466025352478027,-2.546968936920166
1750064042056712400,20.39071240234375,0.2670201361179352,-9.455159187316895,-2.588257074356079
1750064042072642600,20.406642578125,0.2544359564781189,-9.443046569824219,-2.633347749710083
1750064042088664300,20.422664306640623,0.24556700885295868,-9.4302978515625,-2.6794724464416504
1750064042104655600,20.438655517578123,0.2422720491886139,-9.418730735778809,-2.720146656036377
1750064042120616200,20.4546162109375,0.24288463592529297,-9.408422470092773,-2.7555391788482666
1750064042136607500,20.470607421875,0.24585342407226562,-9.39848804473877,-2.7889742851257324
1750064042152507100,20.486507080078123,0.2501677870750427,-9.389480590820312,-2.818770408630371
1750064042168529000,20.50252880859375,0.25277066230773926,-9.383783340454102,-2.8374476432800293
1750064042184550400,20.51855029296875,0.25154316425323486,-9.382444381713867,-2.84198260307312
1750064042200511200,20.53451123046875,0.24858897924423218,-9.384618759155273,-2.83505916595459
1750064042216502500,20.55050244140625,0.24560967087745667,-9.391022682189941,-2.8140275478363037
1750064042232432600,20.5664326171875,0.24313481152057648,-9.399940490722656,-2.7843151092529297
1750064042248424000,20.582423828125,0.23888766765594482,-9.409822463989258,-2.751103162765503
1750064042264445400,20.598445556640623,0.22909167408943176,-9.420584678649902,-2.7148663997650146
1750064042280406300,20.61440625,0.2134668081998825,-9.431567192077637,-2.677753448486328
1750064042296336400,20.63033642578125,0.19825229048728943,-9.437786102294922,-2.6569297313690186
1750064042312388600,20.646388671875,0.182434543967247,-9.445241928100586,-2.631450891494751
1750064042328380000,20.6623798828125,0.16832008957862854,-9.453346252441406,-2.603137969970703
1750064042344432000,20.67843212890625,0.16037526726722717,-9.461723327636719,-2.573023796081543
1750064042360392700,20.694392822265623,0.1671837866306305,-9.462217330932617,-2.5707805156707764
1750064042376384000,20.710384033203123,0.18029636144638062,-9.448970794677734,-2.618173837661743
1750064042392375300,20.726375244140623,0.19072481989860535,-9.428176879882812,-2.6913743019104004
1750064042408336000,20.7423359375,0.20000995695590973,-9.405289649963379,-2.769643545150757
1750064042424266000,20.758265869140626,0.2105833739042282,-9.38321304321289,-2.8427743911743164
1750064042440257300,20.77425732421875,0.2176765352487564,-9.372793197631836,-2.8764147758483887
1750064042456248600,20.79024853515625,0.22211013734340668,-9.370834350585938,-2.882446527481079
1750064042472300800,20.80630078125,0.22884324193000793,-9.36484146118164,-2.901339530944824
