time,seconds_elapsed,z,y,x
1750064021795157800,0.12915771484375,-0.22968533635139465,0.22052235901355743,0.01466076634824276
1750064021811148800,0.145148681640625,-0.22968533635139465,0.22052235901355743,0.01466076634824276
1750064021827109600,0.161109619140625,-0.22968533635139465,0.22052235901355743,0.01466076634824276
1750064021843100700,0.1771005859375,-0.22968533635139465,0.22052235901355743,0.01466076634824276
1750064021859092000,0.193092041015625,-0.22968533635139465,0.22052235901355743,0.01466076634824276
1750064021875052800,0.209052734375,-0.22968533635139465,0.22052235901355743,0.01466076634824276
1750064021891043800,0.2250439453125,-0.22968533635139465,0.22052235901355743,0.01466076634824276
1750064021923026400,0.2570263671875,0.03420845419168472,0.12217304855585098,-0.05619960278272629
1750064021939017500,0.273017578125,0.0507018156349659,0.08002334833145142,-0.04398229718208313
1750064021954917000,0.288917236328125,0.06841690838336945,0.02382374368607998,-0.04703662544488907
1750064021970878000,0.3048779296875,0.07880161702632904,0.013439035043120384,-0.04459316283464432
1750064021986869000,0.320868896484375,0.06414084881544113,0.03420845419168472,-0.045204028487205505
1750064022002860300,0.3368603515625,0.04764748737215996,0.04153883829712868,-0.06169738993048668
1750064022018851600,0.3528515625,0.05009094998240471,0.0354301854968071,-0.08918632566928864
1750064022034781700,0.36878173828125,0.05864306539297104,0.030543262138962746,-0.0861319974064827
1750064022058768600,0.3927685546875,0.033597588539123535,0.11484266817569733,0.0555887371301651
1750064022082724900,0.416724853515625,0.012217304669320583,0.10690141469240189,0.16065755486488342
1750064022098685400,0.432685546875,0.019547687843441963,0.07819075137376785,0.14355333149433136
1750064022114646300,0.448646240234375,0.03420845419168472,0.0507018156349659,0.10323622822761536
1750064022130637300,0.46463720703125,0.0555887371301651,0.03298672288656235,0.060475658625364304
1750064022146628600,0.480628662109375,0.07147123664617538,0.0354301854968071,0.03787364438176155
1750064022170584800,0.504584716796875,0.06414084881544113,0.018936822190880775,0.00427605677396059
1750064022194571800,0.52857177734375,0.05497787147760391,0.015882495790719986,0.004886921960860491
1750064022234488800,0.56848876953125,0.02626720629632473,0.02932153269648552,0.18509216606616974
1750064022250449400,0.584449462890625,0.016493361443281174,-0.0006108652451075613,0.22113321721553802
1750064022266440700,0.600440673828125,0.009162978269159794,-0.02687807008624077,0.19364428520202637
1750064022282431700,0.616431640625,0.012217304669320583,0.01771509274840355,0.14049901068210602
1750064022298423000,0.632423095703125,0.012217304669320583,0.04459316283464432,0.11056660860776901
1750064022314353200,0.648353271484375,0.00733038317412138,0.04459316283464432,0.10018189996480942
1750064022330314000,0.66431396484375,-0.003054326167330146,0.00855211354792118,0.09285151958465576
1750064022346305000,0.680304931640625,-0.015271631069481373,-0.05497787147760391,0.06230825558304787
1750064022370200300,0.704200439453125,-0.014049900695681572,-0.02321287989616394,0.018936822190880775
1750064022386191600,0.720191650390625,-0.012828170321881771,-0.016493361443281174,0.015271631069481373
1750064022402183000,0.736182861328125,-0.006719517521560192,-0.024434609338641167,0.025656340643763542
1750064022418174000,0.752174072265625,-0.004886921960860491,-0.060475658625364304,0.01771509274840355
1750064022434073600,0.768073486328125,0,-0.07513642311096191,-0.006719517521560192
1750064022450034400,0.784034423828125,0.00427605677396059,-0.04398229718208313,-0.03420845419168472
1750064022466025500,0.800025390625,-0.0006108652451075613,-0.009162978269159794,-0.03481931984424591
1750064022481955800,0.815955810546875,-0.007941247895359993,0.02321287989616394,0.00855211354792118
1750064022497977600,0.8319775390625,-0.014049900695681572,0.016493361443281174,0.07330382615327835
1750064022513938200,0.847938232421875,-0.02076941914856434,-0.02871066704392433,0.08918632566928864
1750064022529899000,0.86389892578125,-0.010995574295520782,-0.05864306539297104,0.04214970022439957
1750064022545859600,0.879859619140625,0.00366519158706069,-0.04153883829712868,-0.02687807008624077
1750064022561851000,0.895850830078125,0.009773843921720982,0.03237585723400116,-0.08368854224681854
1750064022577872600,0.91187255859375,0.009162978269159794,0.07208210229873657,-0.09040805697441101
1750064022593833200,0.927833251953125,0.009773843921720982,0.04398229718208313,-0.07330382615327835
1750064022609824500,0.943824462890625,0.022602014243602753,-0.016493361443281174,-0.05314527451992035
1750064022625815600,0.959815673828125,0.04092797264456749,-0.06414084881544113,-0.05803219974040985
1750064022641806800,0.975806884765625,0.04581489413976669,-0.04092797264456749,-0.07696902006864548
1750064022657828600,0.99182861328125,0.045204028487205505,-0.01466076634824276,-0.1007927656173706
1750064022681784800,1.015784912109375,0.0659734457731247,-0.04214970022439957,-0.1319468915462494
1750064022697776000,1.031776123046875,0.07941248267889023,-0.05742133408784866,-0.1466076523065567
1750064022713706200,1.047706298828125,0.0806342139840126,-0.054367005825042725,-0.1569923609495163
1750064022729697500,1.063697509765625,0.07391469180583954,-0.028099801391363144,-0.14416420459747314
1750064022745627600,1.079627685546875,0.042760565876960754,0.00733038317412138,-0.09040805697441101
1750064022761619000,1.095618896484375,-0.003054326167330146,0.04642575979232788,0.0024434609804302454
1750064022777671200,1.111671142578125,-0.02687807008624077,0.06230825558304787,0.08429940044879913
1750064022793631700,1.1276318359375,-0.02871066704392433,0.033597588539123535,0.14049901068210602
1750064022809592600,1.143592529296875,-0.015271631069481373,0.02321287989616394,0.12767083942890167
1750064022825583600,1.15958349609375,0.009162978269159794,0.019547687843441963,0.06291911751031876
1750064022841575000,1.175574951171875,0.01771509274840355,0.05192354694008827,-0.003054326167330146
1750064022857566200,1.191566162109375,0.02015855349600315,0.07757988572120667,-0.028099801391363144
1750064022873496300,1.207496337890625,0.027488935738801956,0.05742133408784866,-0.02076941914856434
1750064022889487600,1.223487548828125,0.021991148591041565,0.036651913076639175,0
1750064022905478700,1.239478759765625,0.00427605677396059,0.0024434609804302454,-0.009773843921720982
1750064022921470000,1.255469970703125,0.00855211354792118,0.021380282938480377,-0.056810468435287476
1750064022937491700,1.27149169921875,0.018325956538319588,0.04398229718208313,-0.1111774742603302
1750064022953452300,1.287452392578125,0.028099801391363144,0.06230825558304787,-0.1661553531885147
1750064022969413000,1.3034130859375,0.03787364438176155,0.0507018156349659,-0.2015855312347412
1750064022985373700,1.319373779296875,0.04459316283464432,0.0507018156349659,-0.2076941877603531
1750064023001395500,1.3353955078125,0.04764748737215996,0.04581489413976669,-0.18570303916931152
1750064023017386800,1.35138671875,0.05375614017248154,0.05742133408784866,-0.15271630883216858
1750064023033347300,1.367347412109375,0.06230825558304787,0.05314527451992035,-0.1362229436635971
1750064023049308200,1.38330810546875,0.06902777403593063,0.0659734457731247,-0.15454891324043274
1750064023065268700,1.399268798828125,0.08674286305904388,0.06780604273080826,-0.192422553896904
1750064023081229600,1.4152294921875,0.08185594528913498,0.11239920556545258,-0.2028072625398636
1750064023097251000,1.4312509765625,0.06963863968849182,0.12461651116609573,-0.18631389737129211
1750064023113181400,1.447181396484375,0.06291911751031876,0.08307767659425735,-0.16982053220272064
1750064023129142000,1.46314208984375,0.05497787147760391,0.027488935738801956,-0.16737708449363708
1750064023145102800,1.479102783203125,0.04092797264456749,0.06414084881544113,-0.16920967400074005
1750064023161094000,1.495093994140625,0.029932396486401558,0.08002334833145142,-0.17287486791610718
1750064023177115600,1.51111572265625,0.031154127791523933,0.08307767659425735,-0.15027284622192383
1750064023201071900,1.53507177734375,0.006108652334660292,0.016493361443281174,-0.10384709388017654
1750064023224967200,1.55896728515625,0.029932396486401558,-0.012217304669320583,-0.10201449692249298
1750064023240958500,1.57495849609375,0.03787364438176155,0.018325956538319588,-0.10201449692249298
1750064023256980200,1.590980224609375,0.039095375686883926,0.02382374368607998,-0.09162978827953339
1750064023272940800,1.60694091796875,0.039706241339445114,0.0354301854968071,-0.054367005825042725
1750064023296897300,1.630897216796875,0.0354301854968071,0.06291911751031876,0.03848451003432274
1750064023312827400,1.646827392578125,0.022602014243602753,0.039706241339445114,0.09224065393209457
1750064023328818700,1.662818603515625,0.02932153269648552,0.07269296050071716,0.13866640627384186
1750064023352775000,1.68677490234375,0.025656340643763542,-0.025656340643763542,0.15882496535778046
1750064023368735500,1.702735595703125,0.0403171069920063,0.015882495790719986,0.13744467496871948
1750064023384726800,1.718726806640625,0.039095375686883926,0.06658431142568588,0.09224065393209457
1750064023400718000,1.734718017578125,0.06230825558304787,0.08918632566928864,0.08002334833145142
1750064023416709000,1.750709228515625,0.08124507963657379,0.10934487730264664,0.07452555745840073
1750064023432608800,1.76660888671875,0.09162978827953339,0.10445795953273773,0.06291911751031876
1750064023448569600,1.782569580078125,0.08185594528913498,0.09651670604944229,0.0403171069920063
1750064023464560600,1.798560546875,0.04459316283464432,0.08552113175392151,0.04153883829712868
1750064023480552000,1.814552001953125,-0.006719517521560192,0.09346238523721695,0.06841690838336945
1750064023496543200,1.830543212890625,-0.02687807008624077,0.05314527451992035,0.0861319974064827
1750064023512443000,1.84644287109375,-0.01466076634824276,0.015271631069481373,0.10506882518529892
1750064023528403500,1.862403564453125,0.001832595793530345,0.015271631069481373,0.1270599663257599
1750064023544394800,1.878394775390625,0.01160643994808197,-0.005497787147760391,0.15393804013729095
1750064023560355300,1.894355224609375,0.028099801391363144,0.03726277872920036,0.15760323405265808
1750064023576377000,1.910377197265625,0.009773843921720982,0.03298672288656235,0.08796459436416626
1750064023592338000,1.926337890625,-0.007941247895359993,-0.014049900695681572,-0.02871066704392433
1750064023608298500,1.942298583984375,0.004886921960860491,0.02321287989616394,-0.08796459436416626
1750064023632255000,1.9662548828125,0.04886921867728233,0.021380282938480377,-0.07696902006864548
1750064023648215600,1.982215576171875,0.04153883829712868,-0.028099801391363144,-0.030543262138962746
1750064023664206800,1.998206787109375,0.009773843921720982,-0.02871066704392433,0.009162978269159794
1750064023680198000,2.014197998046875,-0.00733038317412138,0.0012217304902151227,0.03726277872920036
1750064023696189200,2.030189208984375,-0.02076941914856434,0.02871066704392433,0.0806342139840126
1750064023712119300,2.046119384765625,-0.042760565876960754,0.027488935738801956,0.10567969083786011
1750064023728110600,2.062110595703125,-0.06536258012056351,-0.007941247895359993,0.09040805697441101
1750064023744071200,2.0780712890625,-0.060475658625364304,-0.01160643994808197,0.03420845419168472
1750064023760062500,2.0940625,-0.0507018156349659,0.0006108652451075613,-0.031154127791523933
1750064023776084200,2.110084228515625,-0.036041051149368286,0.021380282938480377,-0.07391469180583954
1750064023792075500,2.126075439453125,-0.03298672288656235,0.018936822190880775,-0.06352998316287994
1750064023816092700,2.1500927734375,-0.06108652427792549,0.009773843921720982,-0.016493361443281174
1750064023832053500,2.166053466796875,-0.06536258012056351,-0.004886921960860491,0.005497787147760391
1750064023848044500,2.18204443359375,-0.03726277872920036,-0.04398229718208313,0.014049900695681572
1750064023864035800,2.198035888671875,-0.012217304669320583,-0.05803219974040985,0.019547687843441963
1750064023880027100,2.214027099609375,0.005497787147760391,-0.048258353024721146,0.025656340643763542
1750064023896018200,2.23001806640625,0.007941247895359993,-0.04398229718208313,0.018325956538319588
1750064023911979000,2.24597900390625,0.006108652334660292,-0.024434609338641167,-0.005497787147760391
1750064023927939600,2.261939697265625,0.005497787147760391,-0.025656340643763542,-0.01710422709584236
1750064023943900400,2.277900390625,0.012217304669320583,-0.039706241339445114,0.0006108652451075613
1750064023959922200,2.293922119140625,0.012217304669320583,-0.02015855349600315,0.059864792972803116
1750064023975913200,2.309913330078125,0.0024434609804302454,-0.012828170321881771,0.10323622822761536
1750064023991874000,2.3258740234375,-0.010995574295520782,-0.04214970022439957,0.0959058403968811
1750064024007834600,2.341834716796875,-0.0006108652451075613,-0.07757988572120667,0.01710422709584236
1750064024023826000,2.357825927734375,-0.016493361443281174,-0.06536258012056351,-0.06658431142568588
1750064024039817200,2.373817138671875,-0.09285151958465576,0.009773843921720982,-0.13011430203914642
1750064024063743000,2.397742919921875,-0.192422553896904,0.31093040108680725,-0.2070833146572113
1750064024079734000,2.413734130859375,-0.21135938167572021,0.5082398653030396,-0.29565876722335815
1750064024095755800,2.429755859375,-0.2620611786842346,0.9724974632263184,-0.49296826124191284
1750064024111686000,2.445685791015625,-0.19792033731937408,1.301142930984497,-0.6921103000640869
1750064024127677200,2.46167724609375,-0.0659734457731247,1.3365731239318848,-0.8038986921310425
1750064024143668500,2.47766845703125,-0.04398229718208313,0.960280179977417,-0.7018841505050659
1750064024159659500,2.493659423828125,-0.06902777403593063,0.49296826124191284,-0.48747047781944275
1750064024175650800,2.50965087890625,-0.06230825558304787,-0.0006108652451075613,-0.2028072625398636
1750064024191581000,2.525580810546875,-0.0507018156349659,-0.22418753802776337,0.05925392732024193
1750064024207511300,2.54151123046875,-0.05803219974040985,-0.28099802136421204,0.20830504596233368
1750064024223471900,2.557471923828125,-0.05009094998240471,-0.28955012559890747,0.2577851414680481
1750064024239463200,2.573463134765625,-0.012217304669320583,-0.2926044464111328,0.24007004499435425
1750064024255485000,2.58948486328125,0.018936822190880775,-0.33658674359321594,0.22846360504627228
1750064024271445500,2.605445556640625,0.03237585723400116,-0.30115658044815063,0.24068090319633484
1750064024287436800,2.621436767578125,0.03176499158143997,-0.3066543638706207,0.24190263450145721
1750064024303427800,2.637427734375,-0.029932396486401558,-0.26633724570274353,0.24923302233219147
1750064024319419100,2.653419189453125,-0.08002334833145142,-0.13316862285137177,0.242513507604599
1750064024335441000,2.66944091796875,-0.06963863968849182,-0.13255776464939117,0.19608774781227112
1750064024351401500,2.6854013671875,-0.06230825558304787,-0.18936823308467865,0.15027284622192383
1750064024367423200,2.70142333984375,-0.06414084881544113,-0.17776179313659668,0.10995574295520782
1750064024383414500,2.71741455078125,-0.039095375686883926,-0.08368854224681854,0.04886921867728233
1750064024399436300,2.733436279296875,-0.00366519158706069,-0.0403171069920063,0.0012217304902151227
1750064024415458000,2.7494580078125,0.028099801391363144,-0.042760565876960754,-0.005497787147760391
1750064024431388200,2.76538818359375,0.03481931984424591,-0.015271631069481373,0.04092797264456749
1750064024447379500,2.78137939453125,0.01038470957428217,-0.03481931984424591,0.08857546001672745
1750064024463370500,2.79737060546875,-0.03420845419168472,-0.016493361443281174,0.12034045159816742
1750064024479300900,2.81330078125,-0.07024950534105301,-0.009162978269159794,0.10506882518529892
1750064024495322400,2.829322265625,-0.1111774742603302,-0.007941247895359993,0.04337143152952194
1750064024511252700,2.845252685546875,-0.1661553531885147,0.2119702398777008,-0.060475658625364304
1750064024527182800,2.861182861328125,-0.26511552929878235,0.7330383062362671,-0.24862214922904968
1750064024543082500,2.87708251953125,-0.4538728892803192,1.4844025373458862,-0.5589417219161987
1750064024559073800,2.89307373046875,-0.7110471725463867,1.786780834197998,-0.9352346658706665
1750064024575095300,2.90909521484375,-0.9633345007896423,1.757459282875061,-1.4972307682037354
1750064024590995200,2.9249951171875,-0.5473352670669556,2.2907447814941406,-2.0005836486816406
1750064024606955800,2.940955810546875,-0.04398229718208313,1.654223084449768,-2.4740042686462402
1750064024622947000,2.956947021484375,0.22663100063800812,1.2009611129760742,-2.716517686843872
1750064024638938000,2.972938232421875,0.3090978264808655,1.1814134120941162,-2.6871962547302246
1750064024654929400,2.988929443359375,0.26083946228027344,1.2773191928863525,-2.465452194213867
1750064024670890000,3.004889892578125,0.12034045159816742,1.5247195959091187,-2.0696115493774414
1750064024686881300,3.02088134765625,0.2272418737411499,0.7299839854240417,-1.4282029867172241
1750064024702842000,3.036842041015625,0.3433062732219696,0.21624629199504852,-0.6053674817085266
1750064024718833200,3.052833251953125,0.4447098970413208,0.16982053220272064,0.15577064454555511
1750064024734824400,3.068824462890625,0.5149593949317932,0.1411098688840866,1.0855075120925903
1750064024750785000,3.084784912109375,0.45631635189056396,-0.26939156651496887,1.6939293146133423
1750064024766745900,3.100745849609375,0.31520646810531616,-0.6713408827781677,2.070833206176758
1750064024782737200,3.116737060546875,-0.04764748737215996,-1.1722503900527954,1.9413297176361084
1750064024798728200,3.132728271484375,-0.35613444447517395,-1.8277088403701782,1.3768903017044067
1750064024814689000,3.14868896484375,-0.6420193910598755,-1.6725490093231201,0.8448266386985779
1750064024830649600,3.164649658203125,-0.7971791625022888,-1.016479730606079,0.3982841372489929
1750064024846610400,3.1806103515625,-0.7935139536857605,-0.4899139404296875,0.03848451003432274
1750064024862601500,3.1966015625,-0.46303585171699524,-0.5119050741195679,-0.2791654169559479
1750064024878592800,3.2125927734375,-0.3323107063770294,-0.7354817390441895,-0.33169981837272644
1750064024910544600,3.244544677734375,0.036651913076639175,-0.7165449261665344,0.010995574295520782
1750064024926505200,3.260505126953125,0.09773843735456467,-1.112385630607605,0.13377949595451355
1750064024942405000,3.276405029296875,0.2535090744495392,-1.76723313331604,0.06169738993048668
1750064024958396200,3.292396240234375,0.4911356568336487,-2.232712507247925,-0.19792033731937408
1750064024974418000,3.30841796875,0.6969972252845764,-1.5442672967910767,-0.3628539443016052
1750064024990348000,3.32434814453125,0.7617489695549011,-0.3274237811565399,0.05192354694008827
1750064025006308900,3.340308837890625,0.5955936312675476,0.3543018400669098,0.3988949954509735
1750064025022269400,3.35626953125,0.14538592100143433,0.5607742667198181,0.5161811113357544
1750064025038291200,3.372291259765625,-0.030543262138962746,0.1771509200334549,0.251676470041275
1750064025054282500,3.388282470703125,0.021380282938480377,-0.5119050741195679,-0.18570303916931152
1750064025070243000,3.4042431640625,0.4202753007411957,-0.7727445363998413,-0.4337143301963806
1750064025094260500,3.428260498046875,1.0555751323699951,0.2736676335334778,-0.39584067463874817
1750064025110160100,3.44416015625,0.9963212013244629,1.0531316995620728,-0.06658431142568588
1750064025126120700,3.46012060546875,0.8973610401153564,0.6236934065818787,0.02015855349600315
1750064025142112000,3.476112060546875,0.503963828086853,-0.35674530267715454,-0.11850785464048386
1750064025158103300,3.492103271484375,0.2889392673969269,-1.2217304706573486,-0.3384193480014801
1750064025174094300,3.50809423828125,0.43188172578811646,-1.5338826179504395,-0.41661009192466736
1750064025190055200,3.52405517578125,0.543059229850769,-1.8600846529006958,-0.43188172578811646
1750064025206015700,3.540015625,0.5955936312675476,-2.563190460205078,-0.2681698501110077
1750064025222007000,3.556007080078125,0.6805039048194885,-3.048217535018921,-0.05375614017248154
1750064025237998300,3.571998291015625,0.979216992855072,-3.4037411212921143,0.0403171069920063
1750064025254020000,3.58802001953125,1.4917329549789429,-3.631593942642212,0.1270599663257599
1750064025269950200,3.6039501953125,2.0024163722991943,-3.6450328826904297,0.13805554807186127
1750064025285910800,3.619910888671875,2.433687210083008,-3.6810739040374756,0.07452555745840073
1750064025301902000,3.635902099609375,2.775160789489746,-3.966958999633789,0.1661553531885147
1750064025317893400,3.651893310546875,3.28828763961792,-4.866763591766357,0.28955012559890747
1750064025333884400,3.667884521484375,3.5857789516448975,-5.928447246551514,0.05925392732024193
1750064025349814800,3.683814697265625,3.9211440086364746,-5.9333343505859375,-0.44715335965156555
1750064025365775400,3.699775390625,4.312097549438477,-5.004818916320801,-1.0812314748764038
1750064025381736000,3.71573583984375,4.456872940063477,-3.9327504634857178,-1.671938180923462
1750064025397727200,3.731727294921875,4.494746685028076,-3.3652565479278564,-1.9480493068695068
1750064025413749000,3.7477490234375,4.71771240234375,-3.908315896987915,-1.4330898523330688
1750064025429709600,3.76370947265625,5.0237555503845215,-4.567439556121826,-1.1044443845748901
1750064025453696500,3.787696533203125,5.451972484588623,-5.39943790435791,-1.2718214988708496
1750064025469596200,3.80359619140625,5.412266254425049,-5.5008416175842285,-1.2712105512619019
1750064025485618000,3.819617919921875,5.146539688110352,-5.45013952255249,-0.7525860071182251
1750064025501548000,3.835548095703125,4.76230525970459,-5.035973072052002,0.16065755486488342
1750064025517539300,3.851539306640625,4.420220851898193,-4.301712989807129,0.8228355050086975
1750064025533561000,3.86756103515625,4.185648441314697,-3.0799825191497803,1.1313223838806152
1750064025549521700,3.883521728515625,4.200920104980469,-1.6743816137313843,0.8796459436416626
1750064025565482500,3.899482421875,4.075693130493164,-0.5839871764183044,0.38606682419776917
1750064025581473500,3.9154736328125,3.665191411972046,0.5693264007568359,-0.2620611786842346
1750064025597464800,3.93146484375,3.1526756286621094,1.454470157623291,-0.7586946487426758
1750064025621451500,3.955451416015625,2.386650562286377,2.358550786972046,-1.081842303276062
1750064025637412400,3.971412353515625,1.86191725730896,2.6389379501342773,-0.8393288254737854
1750064025661437200,3.995437255859375,1.4025466442108154,1.6939293146133423,0.07635815441608429
1750064025677428500,4.011428466796875,1.2302825450897217,1.024420976638794,0.53328537940979
1750064025701354200,4.035354248046875,0.8411614298820496,0.3280346393585205,0.7202101349830627
1750064025717345500,4.051345458984375,0.6316346526145935,0.09468411654233932,0.7086036801338196
1750064025733306000,4.06730615234375,0.5778785347938538,0.07269296050071716,0.7831292152404785
1750064025749267000,4.083266845703125,0.5907067060470581,0.12461651116609573,0.9877691268920898
1750064025765227500,4.0992275390625,0.5943718552589417,0.34208452701568604,1.3060299158096313
1750064025781218800,4.11521875,0.5668829679489136,0.5528330206871033,1.55892813205719
1750064025797149000,4.13114892578125,0.5283984541893005,0.827722430229187,1.7678439617156982
1750064025813140200,4.14714013671875,0.4801400899887085,0.9847147464752197,1.8991800546646118
1750064025837066000,4.17106591796875,0.5815436840057373,0.6688974499702454,2.0286834239959717
1750064025853057300,4.187057373046875,0.6994407176971436,0.26511552929878235,2.031737804412842
1750064025869017900,4.203017822265625,0.7422012686729431,-0.10567969083786011,1.9052886962890625
1750064025884978400,4.218978515625,0.7684684991836548,-0.2981022298336029,1.824654459953308
1750064025901031000,4.235031005859375,0.7672467231750488,-0.3292563557624817,1.8784105777740479
1750064025917052400,4.251052490234375,0.7831292152404785,-0.34025195240974426,1.8655824661254883
1750064025933074200,4.26707421875,0.7910705208778381,-0.35063666105270386,1.881464958190918
1750064025956908500,4.290908447265625,0.423329621553421,-0.6798930168151855,2.05433988571167
1750064025972930300,4.306930419921875,-0.0507018156349659,-1.034194827079773,2.024407386779785
1750064025988830000,4.322829833984375,-0.4691445231437683,-1.0922271013259888,1.8411478996276855
1750064026004760000,4.338760009765625,-1.0519099235534668,-1.0482447147369385,1.5247195959091187
1750064026020751400,4.35475146484375,-1.7629570960998535,-1.29381263256073,1.42637038230896
1750064026036681500,4.370681396484375,-2.5662448406219482,-1.6102408170700073,1.0519099235534668
1750064026052642000,4.38664208984375,-3.165503740310669,-1.947438359260559,0.46364670991897583
1750064026068603000,4.402602783203125,-3.4074063301086426,-2.0311269760131836,-0.03420845419168472
1750064026084563500,4.4185634765625,-3.6664133071899414,-2.3359487056732178,-0.24678955972194672
1750064026100554800,4.4345546875,-3.855781316757202,-2.976135492324829,-0.12095131725072861
1750064026116576500,4.450576416015625,-4.032932281494141,-3.28828763961792,-0.30970868468284607
1750064026132537000,4.466537109375,-4.24429178237915,-3.1801645755767822,-0.36590829491615295
1750064026164519700,4.498519775390625,-3.338989496231079,-2.8344147205352783,-0.10445795953273773
1750064026180480300,4.514480224609375,-2.73301100730896,-2.7348437309265137,0
1750064026196471600,4.530471435546875,-2.9462029933929443,-2.7714955806732178,0.12950342893600464
1750064026212432100,4.54643212890625,-2.596788167953491,-2.8148670196533203,0.11850785464048386
1750064026228362200,4.5623623046875,-2.0390682220458984,-2.2681427001953125,0.3952298164367676
1750064026244353500,4.578353515625,-1.6633861064910889,-2.37321138381958,0.5027421116828918
1750064026268309800,4.602309814453125,-1.8295414447784424,-2.1368067264556885,0.08307767659425735
1750064026284270600,4.6182705078125,-1.5913039445877075,-1.303586483001709,-0.26145032048225403
1750064026308226800,4.642226806640625,-1.1484266519546509,0.12828169763088226,-0.5564982295036316
1750064026324187600,4.658187744140625,-1.1331549882888794,0.9169087409973145,-0.655458390712738
1750064026340148200,4.674148193359375,-0.6053674817085266,0.8197811841964722,-0.3072652220726013
1750064026364074000,4.698073974609375,-0.13866640627384186,0.41111230850219727,-0.2926044464111328
1750064026380034800,4.714034912109375,-0.3188716471195221,-0.3952298164367676,-0.5534439086914062
1750064026395965000,4.72996484375,-0.6933320760726929,-0.2926044464111328,-0.13744467496871948
1750064026411956000,4.7459560546875,-0.7831292152404785,0.1569923609495163,0.5644394755363464
1750064026427916800,4.761916748046875,0.2168571650981903,0.03420845419168472,1.4422528743743896
1750064026443877400,4.77787744140625,1.0806206464767456,-0.2993239760398865,1.86191725730896
1750064026459868700,4.79386865234375,1.5063936710357666,-0.02687807008624077,1.8332066535949707
1750064026475829200,4.809829345703125,1.7464637756347656,0.5021312236785889,1.5717562437057495
1750064026491820500,4.825820556640625,1.5387696027755737,0.8216137290000916,0.9431759119033813
1750064026507750700,4.841750732421875,1.1282681226730347,1.2492194175720215,0.4080579876899719
1750064026523711500,4.85771142578125,0.9853256344795227,1.7708983421325684,0.1563815027475357
1750064026539672000,4.873672119140625,1.129489779472351,2.0818288326263428,0.04948008432984352
1750064026555633000,4.8896328125,0.6957755088806152,1.2620476484298706,0.0959058403968811
1750064026587584800,4.921584716796875,1.4428637027740479,-0.11484266817569733,-0.10567969083786011
1750064026603576000,4.937576171875,2.0054705142974854,-0.10873401165008545,-0.44715335965156555
1750064026619567000,4.953567138671875,2.992628812789917,-0.3634648323059082,-0.8802568316459656
1750064026635558400,4.969558349609375,3.902817964553833,0.45875978469848633,-0.22602014243602753
1750064026659545000,4.993545166015625,3.9296960830688477,0.036651913076639175,0.7483099102973938
1750064026699492600,5.03349267578125,2.1893410682678223,0.5357288122177124,0.6194173693656921
1750064026715514400,5.049514404296875,1.0952813625335693,0.5925393104553223,1.0024298429489136
1750064026731505700,5.065505615234375,0.21074850857257843,0.46242499351501465,1.0512990951538086
1750064026747466200,5.08146630859375,0.21624629199504852,0.7195992469787598,0.6805039048194885
1750064026763427000,5.097427001953125,0.21074850857257843,0.8576548099517822,0.3683517575263977
1750064026779387600,5.1133876953125,-0.5369505286216736,0.1869247704744339,0.24556782841682434
1750064026795348500,5.129348388671875,-1.42637038230896,-0.28955012559890747,0.32070425152778625
1750064026819304700,5.1533046875,-2.3829853534698486,-0.042760565876960754,0.016493361443281174
1750064026835265500,5.169265625,-2.7953193187713623,0.8118399381637573,0.004886921960860491
1750064026851317800,5.18531787109375,-3.0060677528381348,1.0140362977981567,0.24617868661880493
1750064026867247900,5.201247802734375,-2.967583417892456,0.4642575979232788,-0.02687807008624077
1750064026883239200,5.2172392578125,-2.545475482940674,-0.3805690407752991,-0.5167919993400574
1750064026923217200,5.257217041015625,-1.0629055500030518,0.5015203952789307,-1.3457361459732056
1750064026939208200,5.273208251953125,-1.377501130104065,0.3927863538265228,-1.4703526496887207
1750064026955230000,5.28922998046875,-2.415361166000366,-0.08124507963657379,-0.33169981837272644
1750064026971221200,5.30522119140625,-3.017674207687378,-0.49846604466438293,0.13866640627384186
1750064026987151400,5.3211513671875,-2.5912904739379883,-1.5656476020812988,0.3903428912162781
1750064027003142700,5.337142578125,-1.1985175609588623,-0.8967501521110535,0.37079519033432007
1750064027019133700,5.3531337890625,-0.3885102868080139,-0.827722430229187,-0.6328563690185547
1750064027035125000,5.369125,-0.2993239760398865,-0.3084869384765625,-0.749531626701355
1750064027051116300,5.3851162109375,-0.5577199459075928,-0.2840523421764374,-0.8491026759147644
1750064027067046400,5.40104638671875,-1.1557570695877075,-0.3023782968521118,-0.9816604256629944
1750064027083068200,5.417068115234375,-0.7177666425704956,-0.912021815776825,-0.9450085163116455
1750064027098998300,5.432998291015625,-0.3323107063770294,-1.510058879852295,-0.7250970602035522
1750064027114959000,5.448958984375,-0.42088615894317627,-1.6004669666290283,-0.4050036668777466
1750064027131011300,5.46501123046875,-0.9718865752220154,-1.7043139934539795,-0.3689626157283783
1750064027146941400,5.48094140625,-0.8393288254737854,-1.3799445629119873,-0.4740314185619354
1750064027162932700,5.4969326171875,-0.7867944240570068,-1.0885618925094604,-0.3854559659957886
1750064027178893300,5.512893310546875,-0.9963212013244629,-0.5962044596672058,-0.12828169763088226
1750064027194854100,5.528854248046875,-0.8283332586288452,-0.7079927921295166,0.22296582162380219
1750064027210875600,5.544875732421875,-0.19914206862449646,-0.617584764957428,0.7024950385093689
1750064027226806000,5.560805908203125,0.9676105380058289,-0.5082398653030396,0.8124507665634155
1750064027242766600,5.5767666015625,1.9853121042251587,-0.20341812074184418,0.5381723046302795
1750064027258727400,5.5927275390625,3.084258556365967,0.0507018156349659,0.40072759985923767
1750064027282653200,5.616653076171875,5.226562976837158,-0.7360926270484924,0.627358615398407
1750064027298613800,5.63261376953125,5.496565341949463,-0.6982190012931824,0.6053674817085266
1750064027314605000,5.64860498046875,4.952284336090088,-0.09651670604944229,0.46853363513946533
1750064027330596000,5.66459619140625,4.294382572174072,0.28527405858039856,0.43676865100860596
1750064027346557000,5.680556884765625,4.033543109893799,0.617584764957428,-0.10018189996480942
1750064027362548200,5.69654833984375,4.33286714553833,0.7061602473258972,-0.9749409556388855
1750064027378539300,5.712539306640625,3.79652738571167,1.1869112253189087,-0.9944885969161987
1750064027394500000,5.7285,2.8930578231811523,2.7012460231781006,0.2168571650981903
1750064027410460700,5.744460693359375,2.116647958755493,3.8673877716064453,0.5870414972305298
1750064027426421500,5.76042138671875,1.7825047969818115,3.380528211593628,0.6627888083457947
1750064027442412500,5.77641259765625,2.2595906257629395,2.9633073806762695,0.5369505286216736
1750064027458403800,5.79240380859375,2.222327709197998,2.076941728591919,0.39767327904701233
1750064027474425600,5.808425537109375,1.8197675943374634,1.23394775390625,0.15332718193531036
1750064027490417000,5.8244169921875,1.3738359212875366,0.6640105247497559,-0.40133845806121826
1750064027506347000,5.840346923828125,1.026253581047058,0.01771509274840355,-1.0067058801651
1750064027522338000,5.856338134765625,0.9053022861480713,0.30604347586631775,-1.6340645551681519
1750064027538299000,5.872298828125,0.7721336483955383,0.513737678527832,-1.9309450387954712
1750064027554259500,5.888259521484375,0.2626720666885376,-0.3836233615875244,-1.8979582786560059
1750064027570281200,5.90428125,-0.22663100063800812,-1.33168625831604,-1.7275269031524658
1750064027586211300,5.92021142578125,-0.5070181488990784,-1.835650086402893,-1.693318486213684
1750064027602233000,5.936233154296875,-0.5534439086914062,-2.029905319213867,-1.718363881111145
1750064027618224400,5.952224365234375,-0.3243694305419922,-1.8600846529006958,-1.7861700057983398
1750064027634185200,5.968185302734375,0.13377949595451355,-2.1813998222351074,-1.7232508659362793
1750064027650176300,5.98417626953125,0.8503243923187256,-2.7122416496276855,-1.5063936710357666
1750064027666106400,6.0001064453125,1.6548339128494263,-3.0463850498199463,-1.2999212741851807
1750064027682067200,6.016067138671875,2.7262916564941406,-3.9883391857147217,-0.8827002644538879
1750064027698089000,6.0320888671875,3.662748098373413,-5.051244735717773,-0.04764748737215996
1750064027714049500,6.048049560546875,4.2223005294799805,-5.208847999572754,1.3335188627243042
1750064027730040800,6.064040771484375,3.9437460899353027,-4.983438491821289,3.123353958129883
1750064027746001400,6.08000146484375,2.8680124282836914,-4.296215057373047,4.233295917510986
1750064027761992700,6.09599267578125,0.6951646208763123,-2.451402187347412,4.024380207061768
1750064027777984000,6.11198388671875,-0.46364670991897583,-0.5204572081565857,2.3243422508239746
1750064027793975000,6.12797509765625,-0.423329621553421,-0.10445795953273773,0.34086281061172485
1750064027809966300,6.14396630859375,0.10384709388017654,-1.1484266519546509,-0.8448266386985779
1750064027825927000,6.159927001953125,0.19364428520202637,-1.9113973379135132,-1.3536773920059204
1750064027841918200,6.175918212890625,-0.042760565876960754,-1.6694947481155396,-1.3750576972961426
1750064027857909500,6.191909423828125,-0.5907067060470581,-0.21074850857257843,-0.8521569967269897
1750064027873900500,6.207900634765625,-0.9578366875648499,1.2785409688949585,0.018325956538319588
1750064027889922300,6.22392236328125,-0.7391469478607178,1.8460347652435303,0.2626720666885376
1750064027905852700,6.239852783203125,-0.36102136969566345,1.8313740491867065,0.02321287989616394
1750064027921874200,6.255874267578125,0.025656340643763542,1.7214182615280151,-0.21502456068992615
1750064027937804500,6.271804443359375,0.18387043476104736,1.4227051734924316,-0.1814269721508026
1750064027953765000,6.28776513671875,0.15454891324043274,1.0659598112106323,-0.08246681094169617
1750064027969817300,6.3038173828125,0.2724458873271942,0.8546004891395569,-0.0861319974064827
1750064027985747700,6.319747802734375,0.5876523852348328,0.9132435321807861,-0.039706241339445114
1750064028001708300,6.335708251953125,1.0128145217895508,1.112385630607605,-0.08918632566928864
1750064028017699600,6.351699462890625,1.36955988407135,1.4501941204071045,-0.14477506279945374
1750064028033690600,6.367690673828125,1.3915510177612305,1.4899003505706787,-0.04948008432984352
1750064028049682000,6.383681884765625,1.2889256477355957,1.4104878902435303,0.242513507604599
1750064028065642500,6.399642578125,1.0574077367782593,1.084285855293274,0.3139847218990326
1750064028081633800,6.4156337890625,0.9138544201850891,0.8283332586288452,0.19792033731937408
1750064028097625000,6.431625,0.8961393237113953,0.7422012686729431,0.039706241339445114
1750064028113616100,6.4476162109375,0.7953465580940247,0.8539896011352539,-0.06658431142568588
1750064028129638000,6.463637939453125,0.6719517707824707,1.1142182350158691,-0.09346238523721695
1750064028145568300,6.479568359375,0.7067710757255554,1.122159481048584,-0.0555887371301651
1750064028161528800,6.49552880859375,0.9847147464752197,1.1197160482406616,0.0024434609804302454
1750064028177520000,6.51152001953125,1.235169529914856,1.043968677520752,0.021380282938480377
1750064028193511200,6.52751123046875,1.5326608419418335,1.1801916360855103,0.09285151958465576
1750064028209472000,6.543471923828125,1.7342463731765747,1.361007809638977,0.1569923609495163
1750064028225432600,6.5594326171875,1.8081611394882202,1.5583171844482422,0.09529497474431992
1750064028241424000,6.575423828125,1.9816468954086304,1.9364428520202637,0.15943582355976105
1750064028257384400,6.591384521484375,2.899777412414551,2.113593816757202,0.7513642311096191
1750064028273345300,6.60734521484375,2.777604341506958,1.8490891456604004,1.263269305229187
1750064028289367000,6.623366943359375,2.6193902492523193,1.7941112518310547,1.5051720142364502
1750064028305175000,6.639175048828125,2.568077564239502,1.834428310394287,1.5827518701553345
1750064028321257700,6.6552578125,2.5033257007598877,1.6517796516418457,1.6829338073730469
1750064028337096400,6.671096435546875,2.4501805305480957,1.4172073602676392,1.739133358001709
1750064028353057300,6.687057373046875,2.2766947746276855,1.1343767642974854,1.645671010017395
1750064028369078800,6.703078857421875,2.0836613178253174,0.5845980644226074,1.5106697082519531
1750064028385009200,6.719009033203125,2.0335702896118164,-0.28649580478668213,0.8558222055435181
1750064028400969700,6.7349697265625,1.1374311447143555,-1.416596531867981,-0.8411614298820496
1750064028416991500,6.750991455078125,-1.0183123350143433,-1.0109820365905762,-2.797762870788574
1750064028432982800,6.766982666015625,-2.4715607166290283,0.6450737118721008,-3.5668420791625977
1750064028449004500,6.783004638671875,-1.4947872161865234,1.3054190874099731,-2.4581217765808105
1750064028464934700,6.7989345703125,-0.6829473376274109,2.052507162094116,-0.6493497490882874
1750064028480987000,6.81498681640625,0.4043927788734436,5.462357044219971,3.188105821609497
1750064028496917000,6.8309169921875,0.9963212013244629,6.050620079040527,4.4904704093933105
1750064028512908300,6.846908203125,1.189354658126831,5.722585678100586,4.521624565124512
1750064028528899300,6.8628994140625,1.1313223838806152,5.0237555503845215,4.147775173187256
1750064028544860200,6.878860107421875,0.6762278079986572,4.356690883636475,3.7036759853363037
1750064028560851500,6.8948515625,-0.2993239760398865,3.6309831142425537,3.1581733226776123
1750064028576842500,6.910842529296875,-0.9560040831565857,2.9639182090759277,2.5802948474884033
1750064028592864300,6.9268642578125,-1.0280861854553223,2.29746413230896,2.1178698539733887
1750064028608855600,6.94285546875,-0.656069278717041,0.960280179977417,1.7507398128509521
1750064028624816000,6.958816162109375,-0.18997909128665924,-0.5436700582504272,1.5338826179504395
1750064028640838000,6.974837890625,0.24678955972194672,-1.7354681491851807,1.0085384845733643
1750064028656768000,6.99076806640625,0.23884831368923187,-1.777006983757019,0.15515977144241333
1750064028672759300,7.00675927734375,0.10201449692249298,-1.2999212741851807,-0.6389650702476501
1750064028688750600,7.02275048828125,-0.007941247895359993,-1.0824532508850098,-1.2064588069915771
1750064028704711200,7.038711181640625,-0.01160643994808197,-1.158811330795288,-1.4715744256973267
1750064028720672000,7.054672119140625,0.01466076634824276,-1.254717230796814,-1.7299703359603882
1750064028736663000,7.0706630859375,0.004886921960860491,-1.338405728340149,-1.9394971132278442
1750064028752684800,7.086684814453125,0.009162978269159794,-1.4190399646759033,-2.0567831993103027
1750064028768676000,7.102676025390625,0.0555887371301651,-1.5082262754440308,-2.1007654666900635
1750064028784636700,7.11863671875,0.08307767659425735,-1.5815300941467285,-2.0500638484954834
1750064028800567000,7.134567138671875,0.09162978827953339,-1.6395623683929443,-1.9034560918807983
1750064028816558000,7.15055810546875,0.09224065393209457,-1.6420058012008667,-1.681712031364441
1750064028832579800,7.166579833984375,0.0959058403968811,-1.568701982498169,-1.470963478088379
1750064028848571100,7.182571044921875,0.09896016865968704,-1.3585642576217651,-1.2131783962249756
1750064028864531700,7.19853173828125,0.08857546001672745,-1.1160508394241333,-1.0030407905578613
1750064028880523000,7.21452294921875,0.08124507963657379,-0.6969972252845764,-0.7568620443344116
1750064028896514300,7.230514404296875,0.08429940044879913,-0.27488934993743896,-0.5693264007568359
1750064028912505300,7.24650537109375,0.05742133408784866,0.0024434609804302454,-0.45753806829452515
1750064028928527000,7.262527099609375,-0.028099801391363144,0.2779437005519867,-0.3378084897994995
1750064028944457200,7.278457275390625,-0.07269296050071716,0.4544837474822998,-0.24373523890972137
1750064028960479000,7.29447900390625,-0.08429940044879913,0.5943718552589417,-0.13500121235847473
1750064028976470300,7.31047021484375,-0.12217304855585098,0.6933320760726929,-0.02321287989616394
1750064028992461600,7.326461669921875,-0.24434609711170197,0.8100073337554932,0.06475171446800232
1750064029008452600,7.34245263671875,-0.37690386176109314,0.9676105380058289,0.1716531366109848
1750064029024413400,7.358413330078125,-0.3341432809829712,1.0280861854553223,0.26022860407829285
1750064029040404500,7.374404541015625,-0.19853121042251587,1.1056660413742065,0.34147366881370544
1750064029056395800,7.390395751953125,-0.2321287989616394,1.0684033632278442,0.4703662395477295
1750064029072387000,7.406386962890625,-0.1973094791173935,0.8827002644538879,0.6542366743087769
1750064029088408800,7.422408935546875,-0.030543262138962746,0.5076290369033813,0.950506329536438
1750064029104339000,7.4383388671875,0.10567969083786011,0.06963863968849182,1.1936306953430176
1750064029120330000,7.454330078125,0.182648703455925,-0.19303341209888458,1.2785409688949585
1750064029136321300,7.4703212890625,0.242513507604599,-0.3078760802745819,1.2357803583145142
1750064029152312600,7.4863125,0.26511552929878235,-0.24923302233219147,1.1288789510726929
1750064029168303600,7.5023037109375,0.2779437005519867,-0.11850785464048386,0.9578366875648499
1750064029184264400,7.518264404296875,0.303600013256073,0.01038470957428217,0.8051204085350037
1750064029200255700,7.534255859375,0.34025195240974426,0.13011430203914642,0.7562511563301086
1750064029216216300,7.55021630859375,0.36713001132011414,0.35246923565864563,0.8032878041267395
1750064029232177200,7.56617724609375,0.3378084897994995,0.6963863968849182,0.8912523984909058
1750064029248198700,7.58219873046875,0.28527405858039856,1.1093312501907349,0.9266825914382935
1750064029264129000,7.59812890625,0.23945917189121246,1.3170254230499268,0.808174729347229
1750064029280059100,7.61405908203125,0.1966986060142517,1.2559388875961304,0.6126978397369385
1750064029296050400,7.630050537109375,0.19058994948863983,0.9822713136672974,0.35063666105270386
1750064029312072000,7.646072021484375,0.2064724564552307,0.6126978397369385,0.13439035415649414
1750064029328063200,7.662063232421875,0.22113321721553802,0.0861319974064827,-0.10201449692249298
1750064029344024000,7.678024169921875,0.19058994948863983,-0.4544837474822998,-0.30054569244384766
1750064029360015000,7.69401513671875,0.1667662113904953,-0.8729264140129089,-0.44776421785354614
1750064029376006400,7.71000634765625,0.1319468915462494,-1.2229522466659546,-0.5821545720100403
1750064029391967000,7.725967041015625,0.07024950534105301,-1.386053204536438,-0.6701191663742065
1750064029407988700,7.74198876953125,-0.04459316283464432,-1.4202617406845093,-0.7513642311096191
1750064029423919000,7.757919189453125,-0.15577064454555511,-1.3255776166915894,-0.7996225953102112
1750064029439879700,7.773879638671875,-0.2583959996700287,-1.177748203277588,-0.816726803779602
1750064029455840300,7.78984033203125,-0.3683517575263977,-0.9621127843856812,-0.8161159753799438
1750064029471831600,7.80583154296875,-0.43676865100860596,-0.7800748944282532,-0.8087855577468872
1750064029487853300,7.821853271484375,-0.5009095072746277,-0.6188064813613892,-0.8057312369346619
1750064029503783400,7.837783447265625,-0.5467243790626526,-0.503963828086853,-0.7965682744979858
1750064029527800800,7.86180078125,-0.5723807215690613,-0.4031710624694824,-0.7507534027099609
1750064029543731000,7.87773095703125,-0.5668829679489136,-0.36713001132011414,-0.6976081132888794
1750064029559722200,7.89372216796875,-0.5540547966957092,-0.3219259977340698,-0.6114761233329773
1750064029575682800,7.909682861328125,-0.5357288122177124,-0.28955012559890747,-0.5320636034011841
1750064029591643600,7.9256435546875,-0.5265658497810364,-0.2541199326515198,-0.45631635189056396
1750064029607634700,7.941634765625,-0.4966334402561188,-0.22296582162380219,-0.4202753007411957
1750064029623595500,7.957595458984375,-0.4184426963329315,-0.1771509200334549,-0.3982841372489929
1750064029639525600,7.973525634765625,-0.323147714138031,-0.11850785464048386,-0.37690386176109314
1750064029655486500,7.989486572265625,-0.2217440903186798,-0.07452555745840073,-0.3439171314239502
1750064029671508000,8.005508056640625,-0.0959058403968811,-0.06108652427792549,-0.28038713335990906
1750064029687529700,8.02152978515625,0.00366519158706069,-0.07147123664617538,-0.19792033731937408
1750064029703460000,8.037460205078125,0.11056660860776901,-0.08918632566928864,-0.07880161702632904
1750064029719481600,8.053481689453125,0.23640485107898712,-0.08796459436416626,0.04398229718208313
1750064029735442400,8.0694423828125,0.33169981837272644,-0.06780604273080826,0.14049901068210602
1750064029751433700,8.085433837890625,0.42088615894317627,-0.03176499158143997,0.2321287989616394
1750064029767394300,8.101394287109375,0.5015203952789307,0.010995574295520782,0.313373863697052
1750064029783355100,8.117355224609375,0.5583308339118958,0.05497787147760391,0.3836233615875244
1750064029799346200,8.13334619140625,0.59803706407547,0.14966198801994324,0.49846604466438293
1750064029815337500,8.14933740234375,0.5833762884140015,0.2871066629886627,0.626747727394104
1750064029831328800,8.165328857421875,0.5210680365562439,0.5009095072746277,0.7874053120613098
1750064029847381000,8.181381103515625,0.43676865100860596,0.7324274182319641,0.911410927772522
1750064029863311000,8.19731103515625,0.36651915311813354,0.9395107626914978,0.9743300676345825
1750064029879271700,8.213271728515625,0.2919935882091522,1.189354658126831,1.0213667154312134
1750064029895232500,8.229232421875,0.21013765037059784,1.4184291362762451,1.0433578491210938
1750064029911223600,8.2452236328125,0.13561208546161652,1.6603317260742188,1.0476338863372803
1750064029927214800,8.26121484375,0.12767083942890167,1.817324161529541,1.0323622226715088
1750064029951201800,8.285201904296875,0.19486601650714874,1.8570303916931152,0.9804387092590332
1750064029967192800,8.30119287109375,0.2535090744495392,1.750128984451294,0.9230173826217651
1750064029991149300,8.3251494140625,0.3170390725135803,1.4104878902435303,0.8338310718536377
1750064030007140400,8.341140380859375,0.3481931984424591,1.0922271013259888,0.7464773058891296
1750064030023070500,8.357070556640625,0.36529740691185,0.7819074988365173,0.6377432942390442
1750064030039061800,8.373061767578125,0.36102136969566345,0.3781255781650543,0.4544837474822998
1750064030055022600,8.389022705078125,0.33475416898727417,0.029932396486401558,0.27000242471694946
1750064030070983200,8.404983154296875,0.2382374405860901,-0.37140607833862305,0.048258353024721146
1750064030087005000,8.4210048828125,0.05619960278272629,-0.6914994716644287,-0.13072516024112701
1750064030102965500,8.436965576171875,-0.10751228034496307,-0.8448266386985779,-0.2382374405860901
1750064030118956800,8.452956787109375,-0.26511552929878235,-0.8674286603927612,-0.33658674359321594
1750064030134917600,8.468917724609375,-0.3738495409488678,-0.79840087890625,-0.42210787534713745
1750064030150939100,8.484939208984375,-0.49357911944389343,-0.6432411074638367,-0.5241223573684692
1750064030166930400,8.500930419921875,-0.5705481171607971,-0.48747047781944275,-0.6218608021736145
1750064030182860500,8.516860595703125,-0.5809328556060791,-0.403781920671463,-0.6798930168151855
1750064030198882300,8.53288232421875,-0.5571091175079346,-0.3891211748123169,-0.7043276429176331
1750064030214812400,8.5488125,-0.5436700582504272,-0.43737950921058655,-0.6933320760726929
1750064030230803700,8.5648037109375,-0.5393940210342407,-0.5283984541893005,-0.6640105247497559
1750064030246795000,8.580794921875,-0.5174028873443604,-0.6010913848876953,-0.6420193910598755
1750064030262755600,8.596755615234375,-0.4648684561252594,-0.6096435189247131,-0.6310238242149353
1750064030286742500,8.620742431640625,-0.35124751925468445,-0.5326744914054871,-0.6249151229858398
1750064030302703000,8.636703125,-0.26572638750076294,-0.45814892649650574,-0.6145304441452026
1750064030326720500,8.660720458984375,-0.13744467496871948,-0.38728857040405273,-0.5522221922874451
1750064030342650600,8.676650634765625,-0.06230825558304787,-0.35063666105270386,-0.4899139404296875
1750064030358642000,8.692641845703125,0.021991148591041565,-0.32620203495025635,-0.4129449129104614
1750064030374602500,8.7086025390625,0.1007927656173706,-0.33292156457901,-0.35063666105270386
1750064030390563300,8.724563232421875,0.19792033731937408,-0.34208452701568604,-0.2742784917354584
1750064030406554400,8.740554443359375,0.2565633952617645,-0.3139847218990326,-0.18509216606616974
1750064030422515200,8.75651513671875,0.2883284091949463,-0.25961771607398987,-0.09773843735456467
1750064030438506500,8.772506591796875,0.3237585723400116,-0.16859880089759827,0.021380282938480377
1750064030454497500,8.78849755859375,0.33719760179519653,-0.05925392732024193,0.1368338167667389
1750064030478423300,8.81242333984375,0.323147714138031,0.15027284622192383,0.3396410644054413
1750064030494384000,8.828384033203125,0.2926044464111328,0.3078760802745819,0.4691445231437683
1750064030510344700,8.8443447265625,0.26633724570274353,0.4306600093841553,0.5534439086914062
1750064030526336000,8.8603359375,0.24007004499435425,0.5393940210342407,0.6236934065818787
1750064030542266000,8.87626611328125,0.2223549485206604,0.6114761233329773,0.675006091594696
1750064030558227000,8.89222705078125,0.21991148591041565,0.6432411074638367,0.7024950385093689
1750064030574157000,8.908156982421875,0.22357667982578278,0.6359107494354248,0.7153232097625732
1750064030590117600,8.92411767578125,0.22479841113090515,0.5876523852348328,0.7049384713172913
1750064030606139400,8.940139404296875,0.21624629199504852,0.49296826124191284,0.6670648455619812
1750064030622069500,8.956069580078125,0.20463985204696655,0.36102136969566345,0.6120869517326355
1750064030638091300,8.97209130859375,0.18997909128665924,0.22479841113090515,0.5522221922874451
1750064030654052000,8.988052001953125,0.16065755486488342,0.04459316283464432,0.4715879559516907
1750064030670012700,9.0040126953125,0.1264491081237793,-0.1270599663257599,0.3885102868080139
1750064030686034400,9.020034423828125,0.0659734457731247,-0.34513887763023376,0.27977627515792847
1750064030701964500,9.035964599609375,-0.024434609338641167,-0.5448917746543884,0.15454891324043274
1750064030717925400,9.05192529296875,-0.11850785464048386,-0.6768386960029602,0.0507018156349659
1750064030733916400,9.06791650390625,-0.21930062770843506,-0.7586946487426758,-0.04153883829712868
1750064030749938200,9.083938232421875,-0.28527405858039856,-0.7648032903671265,-0.10873401165008545
1750064030765929500,9.099929443359375,-0.35063666105270386,-0.7104362845420837,-0.15515977144241333
1750064030781890000,9.11589013671875,-0.38728857040405273,-0.6206390857696533,-0.2119702398777008
1750064030797881300,9.13188134765625,-0.40194934606552124,-0.5479460954666138,-0.2736676335334778
1750064030813872600,9.14787255859375,-0.41722095012664795,-0.4966334402561188,-0.36102136969566345
1750064030829833200,9.163833251953125,-0.4080579876899719,-0.4905247986316681,-0.4453207552433014
1750064030845824500,9.179824462890625,-0.37568211555480957,-0.5143485069274902,-0.5009095072746277
1750064030861754600,9.195754638671875,-0.342695415019989,-0.5693264007568359,-0.5503895878791809
1750064030877746000,9.211745849609375,-0.303600013256073,-0.626747727394104,-0.5766568183898926
1750064030893676000,9.227676025390625,-0.2321287989616394,-0.6841690540313721,-0.6047565937042236
1750064030909667300,9.243667236328125,-0.15943582355976105,-0.7189884185791016,-0.6346889734268188
1750064030925658400,9.259658447265625,-0.08735372871160507,-0.7153232097625732,-0.6713408827781677
1750064030941588700,9.275588623046875,-0.036041051149368286,-0.6774495840072632,-0.7037167549133301
1750064030957549300,9.29154931640625,-0.006108652334660292,-0.6133087277412415,-0.7202101349830627
1750064030973540600,9.30754052734375,0.036651913076639175,-0.5271766781806946,-0.7250970602035522
1750064030989531600,9.32353173828125,0.09773843735456467,-0.4153883755207062,-0.6963863968849182
1750064031005553400,9.339553466796875,0.1508837193250656,-0.30482175946235657,-0.6432411074638367
1750064031021514200,9.35551416015625,0.18509216606616974,-0.17898350954055786,-0.5717698931694031
1750064031037505300,9.37150537109375,0.2119702398777008,-0.0806342139840126,-0.4905247986316681
1750064031053527000,9.387527099609375,0.24495697021484375,0.048258353024721146,-0.3640756905078888
1750064031069548800,9.403548828125,0.27000242471694946,0.11728613078594208,-0.24984388053417206
1750064031085570600,9.419570556640625,0.2718350291252136,0.1514945775270462,-0.16432274878025055
1750064031101470200,9.43547021484375,0.26083946228027344,0.09651670604944229,-0.11362093687057495
1750064031117492000,9.451491943359375,0.2370157092809677,-0.01466076634824276,-0.0910189226269722
1750064031133452500,9.46745263671875,0.19120082259178162,-0.16371189057826996,-0.07391469180583954
1750064031149413400,9.483413330078125,0.1411098688840866,-0.3170390725135803,-0.05864306539297104
1750064031165435100,9.49943505859375,0.09529497474431992,-0.42210787534713745,-0.042760565876960754
1750064031181365200,9.515365234375,0.051312681287527084,-0.4642575979232788,-0.0024434609804302454
1750064031197326000,9.531326171875,0.01771509274840355,-0.44287729263305664,0.03787364438176155
1750064031213286700,9.54728662109375,-0.01710422709584236,-0.38667771220207214,0.08491026610136032
1750064031229247200,9.563247314453125,-0.04092797264456749,-0.3433062732219696,0.13988813757896423
1750064031245269000,9.57926904296875,-0.0354301854968071,-0.33475416898727417,0.1918116807937622
1750064031261199400,9.595199462890625,-0.007941247895359993,-0.3488040566444397,0.2571742534637451
1750064031277220900,9.611220947265625,0.019547687843441963,-0.3677408695220947,0.3176499307155609
1750064031293181700,9.627181640625,0.048258353024721146,-0.384845107793808,0.3842342495918274
1750064031309142300,9.643142333984375,0.06902777403593063,-0.37751471996307373,0.4508185386657715
1750064031325164000,9.6591640625,0.07635815441608429,-0.33597588539123535,0.4996877610683441
1750064031341094100,9.67509423828125,0.07757988572120667,-0.23396138846874237,0.5522221922874451
1750064031357055000,9.691054931640625,0.0757472887635231,-0.02871066704392433,0.6334672570228577
1750064031373046300,9.70704638671875,0.04398229718208313,0.36224308609962463,0.7635815739631653
1750064031389006800,9.7230068359375,-0.003054326167330146,0.8649851679801941,0.8857545852661133
1750064031404998100,9.738998046875,-0.051312681287527084,1.3329079151153564,0.9364564418792725
1750064031420958700,9.754958740234375,-0.12217304855585098,1.7580702304840088,0.8863654732704163
1750064031436980500,9.77098046875,-0.1661553531885147,1.9663752317428589,0.7751879692077637
1750064031452910600,9.78691064453125,-0.17837265133857727,2.004248857498169,0.6334672570228577
1750064031468902000,9.80290185546875,-0.1814269721508026,1.8448129892349243,0.5222898125648499
1750064031484893200,9.81889306640625,-0.19975294172763824,1.6029103994369507,0.45814892649650574
1750064031500853800,9.834853759765625,-0.19303341209888458,1.2345587015151978,0.3982841372489929
1750064031516783900,9.850783935546875,-0.182648703455925,0.8955284357070923,0.3335324227809906
1750064031532775200,9.866775146484375,-0.17959438264369965,0.5534439086914062,0.21868975460529327
1750064031548797000,9.882796875,-0.16859880089759827,0.31642818450927734,0.06719517707824707
1750064031564788200,9.898788330078125,-0.15332718193531036,0.18631389737129211,-0.07452555745840073
1750064031580718300,9.91471826171875,-0.12400564551353455,0.12034045159816742,-0.22418753802776337
1750064031596648400,9.9306484375,-0.1007927656173706,0.11667526513338089,-0.3139847218990326
1750064031612639700,9.9466396484375,-0.06841690838336945,0.16065755486488342,-0.3732386529445648
1750064031628600300,9.962600341796875,-0.022602014243602753,0.25473082065582275,-0.4050036668777466
1750064031644591600,9.978591552734375,0.025045474991202354,0.3695734739303589,-0.44715335965156555
1750064031660521700,9.994521728515625,0.09529497474431992,0.47708576917648315,-0.5534439086914062
1750064031676482600,10.010482666015625,0.14294247329235077,0.5283984541893005,-0.675006091594696
1750064031692473600,10.0264736328125,0.17959438264369965,0.5345070958137512,-0.7965682744979858
1750064031708403700,10.04240380859375,0.20341812074184418,0.4801400899887085,-0.8655960559844971
1750064031732451600,10.06645166015625,0.20891591906547546,0.37629300355911255,-0.8625417351722717
1750064031756438500,10.0904384765625,0.16371189057826996,0.26450464129447937,-0.7806857824325562
1750064031772399000,10.106399169921875,0.12217304855585098,0.2474004179239273,-0.6896668672561646
1750064031788420900,10.1224208984375,0.07635815441608429,0.3335324227809906,-0.5729916095733643
1750064031804381700,10.138381591796875,0.05009094998240471,0.5558874011039734,-0.4294382631778717
1750064031820342300,10.15434228515625,-0.016493361443281174,0.9572258591651917,-0.2431243658065796
1750064031836333600,10.17033349609375,-0.13011430203914642,1.359786033630371,-0.08857546001672745
1750064031852324900,10.186324951171875,-0.23273965716362,1.7745635509490967,0.0507018156349659
1750064031868285400,10.202285400390625,-0.2742784917354584,2.119091510772705,0.1667662113904953
1750064031884307200,10.21830712890625,-0.3182607889175415,2.3463335037231445,0.26450464129447937
1750064031900237300,10.2342373046875,-0.36529740691185,2.5424211025238037,0.4092797040939331
1750064031916198100,10.2501982421875,-0.38117989897727966,2.6676485538482666,0.5962044596672058
1750064031932158700,10.26615869140625,-0.37201693654060364,2.8295278549194336,0.8936958312988281
1750064031948150000,10.28214990234375,-0.3127630054950714,3.073262929916382,1.2492194175720215
1750064031964171800,10.298171875,-0.2535090744495392,3.3072245121002197,1.5320500135421753
1750064031980102000,10.314101806640625,-0.1973094791173935,3.5472943782806396,1.7177530527114868
1750064031996062500,10.3300625,-0.11911872029304504,3.626707077026367,1.7037031650543213
1750064032012053800,10.3460537109375,0.0006108652451075613,3.5356879234313965,1.6169602870941162
1750064032028075500,10.362075439453125,0.14538592100143433,3.308446168899536,1.7757853269577026
1750064032044097300,10.37809716796875,0.27061331272125244,2.9584202766418457,2.0751092433929443
1750064032060057900,10.394057861328125,0.3072652220726013,2.510045289993286,2.244929790496826
1750064032076110000,10.410110107421875,0.26572638750076294,2.2565362453460693,2.1765129566192627
1750064032092071000,10.42607080078125,0.2272418737411499,2.3548855781555176,1.984701156616211
1750064032108062000,10.44206201171875,0.2217440903186798,2.858849287033081,1.7647897005081177
1750064032124114200,10.4581142578125,0.2223549485206604,3.2223141193389893,1.4880677461624146
1750064032140075000,10.474074951171875,0.19914206862449646,3.031113386154175,1.1936306953430176
1750064032156066300,10.49006640625,0.1160643994808197,2.2760839462280273,1.0219775438308716
1750064032171996400,10.505996337890625,0.021991148591041565,1.5112806558609009,0.8888089060783386
1750064032187987500,10.521987548828125,-0.08368854224681854,0.970054030418396,0.7299839854240417
1750064032203978800,10.537978759765625,-0.13561208546161652,0.9004153609275818,0.5406157374382019
1750064032219939600,10.553939697265625,-0.16798794269561768,1.016479730606079,0.3225368559360504
1750064032235930600,10.5699306640625,-0.2174680233001709,0.9926560521125793,0.18814650177955627
1750064032251891500,10.585891357421875,-0.2474004179239273,0.8069530129432678,0.11362093687057495
1750064032267882500,10.601882568359375,-0.2736676335334778,0.5681046843528748,0.036041051149368286
1750064032283934700,10.617934814453125,-0.3029891550540924,0.46547931432724,-0.01160643994808197
1750064032299865000,10.633864990234375,-0.33047810196876526,0.47769662737846375,-0.08857546001672745
1750064032315825700,10.64982568359375,-0.32559117674827576,0.5320636034011841,-0.16310101747512817
1750064032331817000,10.66581689453125,-0.3396410644054413,0.6059783101081848,-0.16737708449363708
1750064032347808300,10.681808349609375,-0.36224308609962463,0.7244861721992493,-0.18875735998153687
1750064032363799300,10.69779931640625,-0.3646865487098694,0.846659243106842,-0.2638937830924988
1750064032379729400,10.7137294921875,-0.35735616087913513,1.0170906782150269,-0.3701843321323395
1750064032403746800,10.737746826171875,-0.26633724570274353,1.246165156364441,-0.47280970215797424
1750064032419707600,10.753707763671875,-0.1514945775270462,1.2767083644866943,-0.48319441080093384
1750064032435668200,10.769668212890625,-0.036041051149368286,1.1410962343215942,-0.4593706727027893
1750064032451629000,10.785629150390625,0.04764748737215996,0.8741481900215149,-0.37079519033432007
1750064032467589600,10.801589599609375,0.10873401165008545,0.6597344875335693,-0.26633724570274353
1750064032483581000,10.817580810546875,0.1716531366109848,0.5155702829360962,-0.1716531366109848
1750064032499541500,10.83354150390625,0.19425514340400696,0.4807509481906891,-0.10812314599752426
1750064032515532800,10.84953271484375,0.19547687470912933,0.5247332453727722,-0.025656340643763542
1750064032531493400,10.865493408203125,0.17837265133857727,0.5595525503158569,0.03848451003432274
1750064032547454200,10.8814541015625,0.1563815027475357,0.5558874011039734,0.08552113175392151
1750064032563476000,10.89747607421875,0.13439035415649414,0.5015203952789307,0.13011430203914642
1750064032579406000,10.913406005859375,0.15393804013729095,0.4612032473087311,0.14355333149433136
1750064032595397000,10.929397216796875,0.18936823308467865,0.39767327904701233,0.11789698898792267
1750064032611358000,10.94535791015625,0.24190263450145721,0.26939156651496887,0.10873401165008545
1750064032627349200,10.961349365234375,0.28466320037841797,0.1411098688840866,0.12828169763088226
1750064032643340300,10.97734033203125,0.342695415019989,0.04948008432984352,0.15332718193531036
1750064032659301000,10.993301025390625,0.4086688458919525,0.05497787147760391,0.1417207419872284
1750064032675323000,11.009322998046875,0.4691445231437683,0.10018189996480942,0.10995574295520782
1750064032691314000,11.02531396484375,0.4697553813457489,0.11789698898792267,0.08979719132184982
1750064032707305200,11.04130517578125,0.4392121136188507,0.08979719132184982,0.0757472887635231
1750064032723327000,11.057326904296875,0.38117989897727966,0.09224065393209457,0.039095375686883926
1750064032739287600,11.07328759765625,0.2981022298336029,0.14782938361167908,-0.03420845419168472
1750064032755309300,11.089309326171875,0.25473082065582275,0.20097467303276062,-0.14355333149433136
1750064032771270100,11.105270263671875,0.2877175211906433,0.18997909128665924,-0.31459560990333557
1750064032787261200,11.12126123046875,0.32986724376678467,0.022602014243602753,-0.46731191873550415
1750064032803222000,11.137221923828125,0.32986724376678467,-0.2926044464111328,-0.6194173693656921
1750064032819182600,11.1531826171875,0.3170390725135803,-0.5748242139816284,-0.769079327583313
1750064032835143400,11.169143310546875,0.2932153046131134,-0.6725626587867737,-0.8863654732704163
1750064032851134500,11.185134521484375,0.24373523890972137,-0.6249151229858398,-0.9859365224838257
1750064032867125800,11.201125732421875,0.2125810980796814,-0.588874101638794,-1.0525208711624146
1750064032883147500,11.2171474609375,0.18509216606616974,-0.6310238242149353,-1.120937705039978
1750064032899108000,11.233108154296875,0.19792033731937408,-0.759305477142334,-1.1258246898651123
1750064032915099400,11.249099365234375,0.2168571650981903,-0.8814785480499268,-1.0812314748764038
1750064032931090700,11.265090576171875,0.23090706765651703,-0.99876469373703,-1.006095051765442
1750064032947112400,11.281112548828125,0.2174680233001709,-1.0311405658721924,-0.901637077331543
1750064032963103500,11.297103515625,0.1771509200334549,-0.9639453291893005,-0.7318165898323059
1750064032979064300,11.313064208984375,0.10995574295520782,-0.8356636762619019,-0.5681046843528748
1750064032995086000,11.329086181640625,0.051312681287527084,-0.7238753437995911,-0.45814892649650574
1750064033011016200,11.34501611328125,-0.010995574295520782,-0.5583308339118958,-0.3335324227809906
1750064033027038000,11.361037841796875,-0.07391469180583954,-0.423329621553421,-0.23335053026676178
1750064033042998500,11.37699853515625,-0.1466076523065567,-0.31581732630729675,-0.12461651116609573
1750064033058959400,11.39295947265625,-0.21074850857257843,-0.23884831368923187,0.006719517521560192
1750064033074980900,11.40898095703125,-0.2528982162475586,-0.16859880089759827,0.1514945775270462
1750064033090911200,11.4249111328125,-0.2767219543457031,-0.06169738993048668,0.33536502718925476
1750064033106902300,11.44090234375,-0.2871066629886627,0.06780604273080826,0.48869219422340393
1750064033122893600,11.4568935546875,-0.27488934993743896,0.24373523890972137,0.6597344875335693
1750064033138854400,11.4728544921875,-0.27000242471694946,0.3885102868080139,0.7916813492774963
1750064033154876000,11.4888759765625,-0.2742784917354584,0.45142942667007446,0.8558222055435181
1750064033170806300,11.50480615234375,-0.2736676335334778,0.4709770977497101,0.8814785480499268
1750064033186766800,11.520766845703125,-0.27000242471694946,0.47280970215797424,0.8643743395805359
1750064033202758100,11.536758056640625,-0.26939156651496887,0.45753806829452515,0.8032878041267395
1750064033218718700,11.55271875,-0.2822197377681732,0.42210787534713745,0.6982190012931824
1750064033234710000,11.5687099609375,-0.2791654169559479,0.4184426963329315,0.5644394755363464
1750064033250701300,11.584701416015625,-0.25106561183929443,0.4300491213798523,0.42271876335144043
1750064033266662000,11.600661865234375,-0.2174680233001709,0.3439171314239502,0.29016098380088806
1750064033282653200,11.616653076171875,-0.16798794269561768,0.15760323405265808,0.12828169763088226
1750064033298613800,11.63261376953125,-0.11178833991289139,-0.025656340643763542,-0.015882495790719986
1750064033314574600,11.64857470703125,-0.0708603709936142,-0.11911872029304504,-0.1215621829032898
1750064033330535200,11.66453515625,-0.025045474991202354,-0.1765400618314743,-0.21135938167572021
1750064033346496000,11.68049609375,0.010995574295520782,-0.182648703455925,-0.2791654169559479
1750064033362548200,11.69654833984375,0.05925392732024193,-0.18997909128665924,-0.3378084897994995
1750064033378508800,11.7125087890625,0.0861319974064827,-0.2675589919090271,-0.36651915311813354
1750064033394500000,11.7285,0.07452555745840073,-0.375071257352829,-0.3628539443016052
1750064033410460700,11.744460693359375,0.025656340643763542,-0.44287729263305664,-0.33475416898727417
1750064033426452000,11.760451904296875,-0.02932153269648552,-0.38667771220207214,-0.2932153046131134
1750064033442443300,11.776443359375,-0.0910189226269722,-0.192422553896904,-0.21502456068992615
1750064033458403800,11.79240380859375,-0.13316862285137177,-0.05742133408784866,-0.1667662113904953
1750064033474395100,11.80839501953125,-0.14233160018920898,-0.05497787147760391,-0.16310101747512817
1750064033490386200,11.82438623046875,-0.12339477986097336,-0.13377949595451355,-0.17592918872833252
1750064033506377500,11.84037744140625,-0.09957103431224823,-0.22907446324825287,-0.192422553896904
1750064033522338000,11.856338134765625,-0.05253441259264946,-0.3433062732219696,-0.22479841113090515
1750064033538268400,11.872268310546875,-0.009773843921720982,-0.4593706727027893,-0.2474004179239273
1750064033554290200,11.888290283203125,0.0006108652451075613,-0.5412266254425049,-0.23579397797584534
1750064033570220300,11.90422021484375,-0.00855211354792118,-0.5406157374382019,-0.16310101747512817
1750064033586211300,11.92021142578125,-0.003054326167330146,-0.4648684561252594,-0.09468411654233932
1750064033602233000,11.936233154296875,0.015882495790719986,-0.36224308609962463,-0.03298672288656235
1750064033618194000,11.95219384765625,0.02932153269648552,-0.3170390725135803,0.012828170321881771
1750064033634154500,11.968154541015625,0.05864306539297104,-0.3280346393585205,0.060475658625364304
1750064033650115300,11.984115234375,0.10262536257505417,-0.34147366881370544,0.13805554807186127
1750064033666106400,12.0001064453125,0.14844025671482086,-0.33169981837272644,0.21135938167572021
1750064033682128100,12.016128173828125,0.1966986060142517,-0.3194825351238251,0.30482175946235657
1750064033698058500,12.03205859375,0.24678955972194672,-0.31581732630729675,0.3805690407752991
1750064033714019000,12.04801904296875,0.27550023794174194,-0.2993239760398865,0.42577308416366577
1750064033730010400,12.06401025390625,0.2816088795661926,-0.251676470041275,0.4642575979232788
1750064033746001400,12.08000146484375,0.2779437005519867,-0.1875356286764145,0.49785518646240234
1750064033762023200,12.096023193359375,0.251676470041275,-0.10262536257505417,0.5351179838180542
1750064033777984000,12.11198388671875,0.21930062770843506,-0.05925392732024193,0.5229006409645081
1750064033793975000,12.12797509765625,0.19120082259178162,-0.10506882518529892,0.44226643443107605
1750064033809936000,12.143935791015625,0.15332718193531036,-0.24678955972194672,0.31642818450927734
1750064033825896400,12.159896484375,0.11972958594560623,-0.3286454975605011,0.24617868661880493
1750064033841918200,12.175918212890625,0.07513642311096191,-0.3139847218990326,0.18570303916931152
1750064033857909500,12.191909423828125,0.05497787147760391,-0.2632829248905182,0.07941248267889023
1750064033873900500,12.207900634765625,0.05742133408784866,-0.19608774781227112,-0.03237585723400116
1750064033889891800,12.223891845703125,0.08307767659425735,-0.19303341209888458,-0.17531833052635193
1750064033905883100,12.239883056640625,0.10018189996480942,-0.31520646810531616,-0.3323107063770294
1750064033921874200,12.255874267578125,0.10995574295520782,-0.4434881806373596,-0.4746423065662384
1750064033937835000,12.2718349609375,0.10751228034496307,-0.53328537940979,-0.618195652961731
1750064033953826300,12.287826416015625,0.08979719132184982,-0.5717698931694031,-0.6933320760726929
1750064033969817300,12.3038173828125,0.06108652427792549,-0.6108652353286743,-0.7195992469787598
1750064033985778200,12.319778076171875,0.03787364438176155,-0.6664539575576782,-0.7086036801338196
1750064034001769200,12.335769287109375,0.015882495790719986,-0.7214318513870239,-0.7049384713172913
1750064034017760500,12.351760498046875,-0.03787364438176155,-0.7654141783714294,-0.6896668672561646
1750064034033751800,12.367751708984375,-0.09957103431224823,-0.7770205736160278,-0.6487388610839844
1750064034049742800,12.383742919921875,-0.15882496535778046,-0.7483099102973938,-0.5589417219161987
1750064034065703700,12.39970361328125,-0.19608774781227112,-0.6927211880683899,-0.44165557622909546
1750064034081756000,12.415755859375,-0.22357667982578278,-0.6713408827781677,-0.33597588539123535
1750064034097716500,12.431716552734375,-0.24373523890972137,-0.66584312915802,-0.2168571650981903
1750064034113707800,12.447707763671875,-0.24678955972194672,-0.6420193910598755,-0.11545353382825851
1750064034129699000,12.463698974609375,-0.26511552929878235,-0.5772676467895508,0.006719517521560192
1750064034145659600,12.47965966796875,-0.30054569244384766,-0.48747047781944275,0.1313360333442688
1750064034161711900,12.4957119140625,-0.33169981837272644,-0.39584067463874817,0.2376265823841095
1750064034177672700,12.511672607421875,-0.39645153284072876,-0.2926044464111328,0.342695415019989
1750064034193663700,12.527663818359375,-0.4538728892803192,-0.21502456068992615,0.41661009192466736
1750064034209655000,12.543655029296875,-0.4856378734111786,-0.14477506279945374,0.48380526900291443
1750064034225616000,12.559615966796875,-0.4807509481906891,-0.11301007121801376,0.5296201705932617
1750064034241637400,12.575637451171875,-0.4489859640598297,-0.09224065393209457,0.5662720799446106
1750064034257598200,12.59159814453125,-0.3933972120285034,-0.06902777403593063,0.6114761233329773
1750064034273589500,12.607589599609375,-0.34025195240974426,-0.033597588539123535,0.6224716901779175
1750064034289580500,12.62358056640625,-0.26083946228027344,0.07024950534105301,0.5839871764183044
1750064034305571800,12.63957177734375,-0.16065755486488342,0.1215621829032898,0.513126790523529
1750064034321563100,12.655563232421875,-0.07757988572120667,0.01710422709584236,0.44776421785354614
1750064034337493200,12.6714931640625,-0.012217304669320583,-0.12278391420841217,0.36224308609962463
1750064034353484300,12.687484375,0.016493361443281174,-0.03237585723400116,0.21624629199504852
1750064034369475600,12.7034755859375,0.028099801391363144,0.02076941914856434,0.04337143152952194
1750064034385467000,12.719466796875,0.0507018156349659,-0.08674286305904388,-0.14905111491680145
1750064034401488600,12.735488525390625,0.07208210229873657,-0.1966986060142517,-0.2638937830924988
1750064034417418800,12.751418701171875,0.09712757170200348,-0.23090706765651703,-0.3286454975605011
1750064034433348900,12.767348876953125,0.14905111491680145,-0.2021963894367218,-0.3488040566444397
1750064034449340200,12.783340087890625,0.19058994948863983,-0.20952677726745605,-0.3646865487098694
1750064034465362000,12.79936181640625,0.20341812074184418,-0.2834414839744568,-0.394008070230484
1750064034481414100,12.8154140625,0.21624629199504852,-0.38667771220207214,-0.4141666293144226
1750064034497405200,12.8314052734375,0.25045475363731384,-0.5009095072746277,-0.3995058834552765
1750064034513396500,12.847396484375,0.28099802136421204,-0.6420193910598755,-0.36651915311813354
1750064034529387800,12.8633876953125,0.2816088795661926,-0.8643743395805359,-0.3701843321323395
1750064034545348400,12.879348388671875,0.2822197377681732,-1.2431107759475708,-0.4001167416572571
1750064034561370000,12.8953701171875,0.27550023794174194,-1.5051720142364502,-0.3445279896259308
1750064034577331000,12.9113310546875,0.21930062770843506,-1.6273449659347534,-0.21013765037059784
1750064034593352400,12.9273525390625,0.13927727937698364,-1.570534586906433,-0.09346238523721695
1750064034609343700,12.94334375,0.08674286305904388,-1.4471397399902344,0.030543262138962746
1750064034625335000,12.9593349609375,-0.021380282938480377,-1.3084733486175537,0.14416420459747314
1750064034641326000,12.975326171875,-0.14049901068210602,-1.140485405921936,0.18509216606616974
1750064034657287000,12.991286865234375,-0.20525072515010834,-0.816726803779602,0.24495697021484375
1750064034673308700,13.00730859375,-0.22052235901355743,-0.475253164768219,0.19364428520202637
1750064034689269200,13.023269287109375,-0.1765400618314743,-0.242513507604599,0.009162978269159794
1750064034713225700,13.047225830078125,-0.10934487730264664,-0.13011430203914642,-0.25045475363731384
1750064034729216800,13.063216796875,-0.07941248267889023,-0.33597588539123535,-0.26572638750076294
1750064034745208000,13.0792080078125,-0.025656340643763542,-0.6096435189247131,-0.22846360504627228
1750064034761229800,13.095229736328125,0.05619960278272629,-0.9425650835037231,-0.2064724564552307
1750064034777190400,13.1111904296875,0.2021963894367218,-1.2027937173843384,-0.20586158335208893
1750064034793151200,13.127151123046875,0.304210901260376,-1.3555099964141846,-0.252287358045578
1750064034809142300,13.143142333984375,0.3219259977340698,-1.472796082496643,-0.36590829491615295
1750064034825164000,13.1591640625,0.2926044464111328,-1.5503759384155273,-0.4911356568336487
1750064034841185800,13.175185791015625,0.2583959996700287,-1.6316211223602295,-0.6279694437980652
1750064034857146600,13.191146728515625,0.19608774781227112,-1.712866187095642,-0.7458664774894714
1750064034873107200,13.207107177734375,0.1411098688840866,-1.778228759765625,-0.8142833709716797
1750064034889129000,13.22312890625,0.13805554807186127,-1.814269781112671,-0.8460483551025391
1750064034905120300,13.239120361328125,0.14477506279945374,-1.8167132139205933,-0.8295549750328064
1750064034921141800,13.255141845703125,0.08368854224681854,-1.793500304222107,-0.770301103591919
1750064034945067800,13.27906787109375,-0.05009094998240471,-1.633453607559204,-0.6719517707824707
1750064034961089300,13.29508935546875,-0.07635815441608429,-1.4117095470428467,-0.6096435189247131
1750064034977050000,13.311050048828125,-0.07696902006864548,-1.1814134120941162,-0.5791002511978149
1750064034993041400,13.32704150390625,-0.08185594528913498,-0.8637634515762329,-0.5589417219161987
1750064035009032400,13.343032470703125,-0.0910189226269722,-0.5351179838180542,-0.5503895878791809
1750064035025023700,13.359023681640625,-0.07819075137376785,-0.2070833146572113,-0.5485569834709167
1750064035041045500,13.37504541015625,-0.039095375686883926,-0.14355333149433136,-0.5705481171607971
1750064035057006000,13.391006103515625,-0.006108652334660292,-0.22113321721553802,-0.5540547966957092
1750064035072967000,13.406966796875,0.06291911751031876,-0.37140607833862305,-0.3903428912162781
1750064035088958000,13.4229580078125,0.09651670604944229,-0.5797111392021179,-0.22479841113090515
1750064035104949200,13.43894921875,0.1466076523065567,-0.8936958312988281,-0.14477506279945374
1750064035121001500,13.45500146484375,0.23457226157188416,-1.1374311447143555,-0.0959058403968811
1750064035136992800,13.47099267578125,0.2687807083129883,-1.2620476484298706,-0.05314527451992035
1750064035152953300,13.486953369140625,0.242513507604599,-1.415374755859375,-0.00855211354792118
1750064035168944600,13.502944580078125,0.21563543379306793,-1.5241087675094604,0.021991148591041565
1750064035184966400,13.51896630859375,0.1918116807937622,-1.5894713401794434,0.06414084881544113
1750064035200988200,13.53498828125,0.18020524084568024,-1.5778648853302002,0.10445795953273773
1750064035216948700,13.55094873046875,0.16249015927314758,-1.5253305435180664,0.10934487730264664
1750064035232878800,13.56687890625,0.1007927656173706,-1.4220943450927734,0.0861319974064827
1750064035248839700,13.582839599609375,0.02382374368607998,-1.3176363706588745,0.05497787147760391
1750064035264800300,13.59880029296875,-0.06658431142568588,-1.214400053024292,0.018325956538319588
1750064035280761000,13.614760986328125,-0.15454891324043274,-1.150259256362915,-0.030543262138962746
1750064035296721700,13.6307216796875,-0.2382374405860901,-1.103833556175232,-0.09040805697441101
1750064035312682500,13.6466826171875,-0.29626965522766113,-1.0238101482391357,-0.19975294172763824
1750064035328643000,13.66264306640625,-0.3274237811565399,-0.9028588533401489,-0.3194825351238251
1750064035344664800,13.678664794921875,-0.32131510972976685,-0.7244861721992493,-0.45204028487205505
1750064035360717000,13.694717041015625,-0.30970868468284607,-0.5833762884140015,-0.49785518646240234
1750064035376678000,13.710677978515625,-0.3084869384765625,-0.5955936312675476,-0.45142942667007446
1750064035392669000,13.7266689453125,-0.31154128909111023,-0.788016140460968,-0.35063666105270386
1750064035408660200,13.74266015625,-0.34513887763023376,-1.0574077367782593,-0.21441370248794556
1750064035424620800,13.758620849609375,-0.45142942667007446,-1.2046263217926025,-0.15271630883216858
1750064035440642600,13.774642578125,-0.6310238242149353,-1.2467759847640991,-0.17104226350784302
1750064035456633900,13.7906337890625,-0.7641924023628235,-1.1746938228607178,-0.24190263450145721
1750064035472625200,13.806625244140625,-0.8301658630371094,-0.9920451641082764,-0.36651915311813354
1750064035488585700,13.822585693359375,-0.8625417351722717,-0.7397578358650208,-0.5002986192703247
1750064035504546300,13.83854638671875,-0.8869763612747192,-0.49296826124191284,-0.5919284224510193
1750064035520537600,13.85453759765625,-0.8735373020172119,-0.18875735998153687,-0.6359107494354248
1750064035536479200,13.870479248046875,-0.7837401032447815,0.04214970022439957,-0.5900958180427551
1750064035552470500,13.886470458984375,-0.6322455406188965,0.24007004499435425,-0.4801400899887085
1750064035568492300,13.9024921875,-0.4440990388393402,0.3170390725135803,-0.3579670190811157
1750064035592479000,13.92647900390625,-0.17043140530586243,0.3194825351238251,-0.15882496535778046
1750064035608439800,13.942439697265625,0.05925392732024193,0.3384193480014801,0.0708603709936142
1750064035624430800,13.958430908203125,0.24007004499435425,0.21502456068992615,0.2528982162475586
1750064035648387000,13.982386962890626,0.4599815309047699,-0.19486601650714874,0.3323107063770294
1750064035664378400,13.99837841796875,0.5998696684837341,-0.4239404797554016,0.29993483424186707
1750064035688334600,14.02233447265625,0.7562511563301086,-0.6255260109901428,0.18631389737129211
1750064035712260600,14.046260498046875,0.8032878041267395,-0.6340781450271606,0.13255776464939117
1750064035728251600,14.062251708984375,0.827722430229187,-0.5907067060470581,0.17959438264369965
1750064035744273400,14.0782734375,0.8258898258209229,-0.5381723046302795,0.25961771607398987
1750064035760264700,14.0942646484375,0.7843509912490845,-0.45265114307403564,0.36529740691185
1750064035776164400,14.110164306640625,0.7250970602035522,-0.34697145223617554,0.43615779280662537
1750064035792125000,14.126125,0.6444628238677979,-0.1820378452539444,0.4807509481906891
1750064035808208000,14.142207763671875,0.5656611919403076,0.01466076634824276,0.48197266459465027
1750064035824199000,14.158198974609375,0.5064072608947754,0.19303341209888458,0.45753806829452515
1750064035840190200,14.174190185546875,0.45814892649650574,0.384845107793808,0.4001167416572571
1750064035856181500,14.190181396484375,0.4349360466003418,0.5198463201522827,0.3433062732219696
1750064035872172500,14.206172607421875,0.39584067463874817,0.6206390857696533,0.2779437005519867
1750064035888163800,14.222163818359375,0.3286454975605011,0.6444628238677979,0.22602014243602753
1750064035904155100,14.238155029296875,0.26145032048225403,0.6041457056999207,0.192422553896904
1750064035920146200,14.254146240234375,0.1875356286764145,0.49785518646240234,0.15943582355976105
1750064035936076300,14.270076171875,0.11423180252313614,0.37079519033432007,0.13439035415649414
1750064035952037000,14.286037109375,0.015882495790719986,0.21380282938480377,0.09162978827953339
1750064035968028400,14.3020283203125,-0.07269296050071716,0.09773843735456467,0.03481931984424591
1750064035984019500,14.31801953125,-0.13927727937698364,0.07696902006864548,-0.021380282938480377
1750064036000041200,14.334041259765625,-0.2223549485206604,0.1160643994808197,-0.0959058403968811
1750064036016002000,14.350001953125,-0.2871066629886627,0.15393804013729095,-0.14844025671482086
1750064036031993000,14.3659931640625,-0.34697145223617554,0.16982053220272064,-0.1869247704744339
1750064036047984400,14.381984375,-0.4031710624694824,0.15454891324043274,-0.20097467303276062
1750064036080028000,14.41402783203125,-0.4795292317867279,0.07330382615327835,-0.2217440903186798
1750064036095988500,14.429988525390625,-0.4746423065662384,0.01710422709584236,-0.2370157092809677
1750064036111979800,14.445979736328125,-0.46242499351501465,-0.03481931984424591,-0.2474004179239273
1750064036143901200,14.477901123046875,-0.39706242084503174,-0.13439035415649414,-0.2376265823841095
1750064036159923000,14.4939228515625,-0.33658674359321594,-0.16982053220272064,-0.22052235901355743
1750064036175883500,14.509883544921875,-0.2626720666885376,-0.1716531366109848,-0.19486601650714874
1750064036191874800,14.525874755859375,-0.20036379992961884,-0.1466076523065567,-0.17043140530586243
1750064036207865900,14.541865966796875,-0.12828169763088226,-0.10018189996480942,-0.13927727937698364
1750064036223826700,14.55782666015625,-0.06780604273080826,-0.05803219974040985,-0.1062905490398407
1750064036239879000,14.57387890625,0.0024434609804302454,-0.05619960278272629,-0.07452555745840073
1750064036255809000,14.58980908203125,0.05192354694008827,-0.14355333149433136,-0.05009094998240471
1750064036271769900,14.605769775390625,0.08735372871160507,-0.23579397797584534,-0.02321287989616394
1750064036295726000,14.62972607421875,0.11850785464048386,-0.38667771220207214,0.018936822190880775
1750064036311686700,14.645686767578125,0.12278391420841217,-0.44837507605552673,0.039095375686883926
1750064036327647500,14.6616474609375,0.11911872029304504,-0.4508185386657715,0.056810468435287476
1750064036343669200,14.677669189453125,0.11178833991289139,-0.4043927788734436,0.08124507963657379
1750064036359660300,14.693660400390625,0.1007927656173706,-0.3384193480014801,0.10445795953273773
1750064036375590700,14.709590576171875,0.08979719132184982,-0.24129177629947662,0.13866640627384186
1750064036391581700,14.725581787109375,0.08002334833145142,-0.1270599663257599,0.17470745742321014
1750064036407573000,14.741572998046875,0.06169738993048668,-0.029932396486401558,0.20402899384498596
1750064036423533600,14.757533447265626,0.029932396486401558,0.07880161702632904,0.22968533635139465
1750064036439524900,14.77352490234375,0.00855211354792118,0.16249015927314758,0.2382374405860901
1750064036455485700,14.789485595703125,-0.012217304669320583,0.23945917189121246,0.2321287989616394
1750064036471415800,14.805415771484375,-0.033597588539123535,0.2877175211906433,0.21319197118282318
1750064036487406800,14.82140673828125,-0.059864792972803116,0.29138273000717163,0.18631389737129211
1750064036503398100,14.837398193359375,-0.08918632566928864,0.2565633952617645,0.1459967941045761
1750064036519389400,14.853389404296875,-0.10506882518529892,0.2076941877603531,0.11239920556545258
1750064036535350000,14.86935009765625,-0.11056660860776901,0.14294247329235077,0.07330382615327835
1750064036551341300,14.88534130859375,-0.10995574295520782,0.08918632566928864,0.03176499158143997
1750064036567302000,14.901302001953125,-0.09896016865968704,0.05375614017248154,-0.0024434609804302454
1750064036583293200,14.917293212890625,-0.0806342139840126,0.01710422709584236,-0.036041051149368286
1750064036599315000,14.93331494140625,-0.06963863968849182,-0.006719517521560192,-0.05864306539297104
1750064036615275500,14.949275634765625,-0.05742133408784866,-0.033597588539123535,-0.08124507963657379
1750064036631327700,14.96532763671875,-0.02932153269648552,-0.04886921867728233,-0.09162978827953339
1750064036647319000,14.981319091796875,-0.0006108652451075613,-0.05192354694008827,-0.09651670604944229
1750064036663279900,14.99727978515625,0.03726277872920036,-0.05314527451992035,-0.09468411654233932
1750064036679271000,15.01327099609375,0.0659734457731247,-0.04886921867728233,-0.09224065393209457
1750064036695231700,15.029231689453125,0.08368854224681854,-0.05803219974040985,-0.09896016865968704
1750064036711222800,15.045222900390625,0.10751228034496307,-0.08124507963657379,-0.11301007121801376
1750064036727183600,15.06118359375,0.12767083942890167,-0.10506882518529892,-0.11239920556545258
1750064036743144200,15.077144287109375,0.1508837193250656,-0.12461651116609573,-0.09224065393209457
1750064036759196400,15.093196533203125,0.17348572611808777,-0.14538592100143433,-0.05803219974040985
1750064036775157200,15.1091572265625,0.18631389737129211,-0.15271630883216858,-0.018325956538319588
1750064036791148500,15.1251484375,0.18509216606616974,-0.13255776464939117,0.019547687843441963
1750064036807139600,15.1411396484375,0.1661553531885147,-0.11239920556545258,0.039095375686883926
1750064036823131000,15.157130859375,0.13927727937698364,-0.0910189226269722,0.04581489413976669
1750064036839122200,15.1731220703125,0.1007927656173706,-0.0708603709936142,0.0507018156349659
1750064036855052300,15.18905224609375,0.05803219974040985,-0.060475658625364304,0.05497787147760391
1750064036870982400,15.204982421875,0.015882495790719986,-0.056810468435287476,0.07024950534105301
1750064036886943000,15.22094287109375,-0.01466076634824276,-0.030543262138962746,0.08735372871160507
1750064036902903800,15.23690380859375,-0.056810468435287476,0.03420845419168472,0.10201449692249298
1750064036918956000,15.2529560546875,-0.0910189226269722,0.1264491081237793,0.10262536257505417
1750064036934886100,15.26888623046875,-0.10445795953273773,0.20463985204696655,0.09285151958465576
1750064036950847000,15.284846923828125,-0.11362093687057495,0.2681698501110077,0.08246681094169617
1750064036966807600,15.3008076171875,-0.1264491081237793,0.2926044464111328,0.07757988572120667
1750064036982829300,15.316829345703125,-0.1411098688840866,0.2718350291252136,0.06963863968849182
1750064036998820600,15.332820556640625,-0.15332718193531036,0.2223549485206604,0.05864306539297104
1750064037014781200,15.34878125,-0.16493362188339233,0.17409659922122955,0.0403171069920063
1750064037030772500,15.3647724609375,-0.16920967400074005,0.12522737681865692,0.009773843921720982
1750064037046763800,15.380763671875,-0.15515977144241333,0.09651670604944229,-0.019547687843441963
1750064037062724400,15.396724365234375,-0.12095131725072861,0.0757472887635231,-0.04642575979232788
1750064037078746000,15.41274609375,-0.06841690838336945,0.07024950534105301,-0.05619960278272629
1750064037094706700,15.428706787109375,-0.00366519158706069,0.06719517707824707,-0.04398229718208313
1750064037110698000,15.444697998046875,0.0708603709936142,0.027488935738801956,-0.019547687843441963
1750064037126689300,15.460689208984375,0.12400564551353455,-0.07024950534105301,-0.003054326167330146
1750064037142649900,15.47664990234375,0.16920967400074005,-0.2370157092809677,0.001832595793530345
1750064037158671600,15.492671630859375,0.20830504596233368,-0.39645153284072876,-0.003054326167330146
1750064037174601700,15.508601806640625,0.22479841113090515,-0.4917465150356293,-0.01466076634824276
1750064037190562600,15.5245625,0.22540926933288574,-0.5338962078094482,-0.022602014243602753
1750064037206584300,15.540584228515625,0.21807889640331268,-0.513126790523529,-0.024434609338641167
1750064037222545000,15.556544921875,0.1875356286764145,-0.43676865100860596,-0.01466076634824276
1750064037238505500,15.57250537109375,0.1417207419872284,-0.3072652220726013,0.0012217304902151227
1750064037254466300,15.58846630859375,0.10262536257505417,-0.1875356286764145,0.014049900695681572
1750064037270457600,15.60445751953125,0.05803219974040985,-0.04703662544488907,0.018936822190880775
1750064037286448600,15.62044873046875,0.009773843921720982,0.07391469180583954,0.019547687843441963
1750064037302409500,15.636409423828125,-0.039095375686883926,0.17470745742321014,0.014049900695681572
1750064037318431200,15.65243115234375,-0.08246681094169617,0.21868975460529327,0.006108652334660292
1750064037334422300,15.66842236328125,-0.1215621829032898,0.22296582162380219,0.009162978269159794
1750064037350413600,15.68441357421875,-0.1612684279680252,0.2217440903186798,0.018325956538319588
1750064037366404900,15.70040478515625,-0.18936823308467865,0.22296582162380219,0.02382374368607998
1750064037382396000,15.71639599609375,-0.21807889640331268,0.2370157092809677,0.02076941914856434
1750064037398387200,15.73238720703125,-0.22540926933288574,0.25106561183929443,0.006108652334660292
1750064037414347800,15.74834765625,-0.21563543379306793,0.24007004499435425,-0.0012217304902151227
1750064037430308600,15.76430859375,-0.19547687470912933,0.2125810980796814,-0.0012217304902151227
1750064037446269200,15.780269287109375,-0.1661553531885147,0.17470745742321014,0.003054326167330146
1750064037462260500,15.796260498046875,-0.12339477986097336,0.12095131725072861,0.00733038317412138
1750064037478282200,15.8122822265625,-0.08002334833145142,0.06719517707824707,0.007941247895359993
1750064037494212400,15.82821240234375,-0.04214970022439957,0.016493361443281174,0.0012217304902151227
1750064037510142500,15.844142578125,0.02015855349600315,-0.054367005825042725,-0.006108652334660292
1750064037526133800,15.8601337890625,0.0708603709936142,-0.10751228034496307,-0.001832595793530345
1750064037542155500,15.876155517578125,0.11484266817569733,-0.1771509200334549,0.004886921960860491
1750064037558177300,15.89217724609375,0.1563815027475357,-0.2632829248905182,0.007941247895359993
1750064037574137900,15.908137939453125,0.18081611394882202,-0.33108896017074585,0.00733038317412138
1750064037590129200,15.924129150390625,0.1869247704744339,-0.3854559659957886,0.005497787147760391
1750064037606089700,15.94008984375,0.18081611394882202,-0.39217549562454224,0.0024434609804302454
1750064037622050600,15.956050537109375,0.18814650177955627,-0.3640756905078888,0.00427605677396059
1750064037638041900,15.972041748046875,0.18631389737129211,-0.30115658044815063,0.013439035043120384
1750064037653941500,15.98794140625,0.15882496535778046,-0.2278527319431305,0.02626720629632473
1750064037669932500,16.0039326171875,0.12400564551353455,-0.13011430203914642,0.04092797264456749
1750064037685923800,16.019923828125,0.09651670604944229,-0.05619960278272629,0.04703662544488907
1750064037701884400,16.035884521484373,0.04703662544488907,0.01771509274840355,0.04459316283464432
1750064037717906200,16.05190625,-0.012217304669320583,0.07696902006864548,0.029932396486401558
1750064037733836300,16.067836181640626,-0.05192354694008827,0.10384709388017654,0.012217304669320583
1750064037749827600,16.08382763671875,-0.09773843735456467,0.13927727937698364,-0.001832595793530345
1750064037765788400,16.099788330078123,-0.1258382350206375,0.17898350954055786,-0.0024434609804302454
1750064037781749000,16.1157490234375,-0.14355333149433136,0.2217440903186798,0.0012217304902151227
1750064037797770800,16.131770751953123,-0.15454891324043274,0.25106561183929443,0.003054326167330146
1750064037813700900,16.147700927734373,-0.15882496535778046,0.2626720666885376,0.004886921960860491
1750064037829692200,16.163692138671873,-0.14966198801994324,0.2376265823841095,-0.001832595793530345
1750064037845683500,16.179683349609373,-0.1319468915462494,0.20525072515010834,-0.00366519158706069
1750064037861705000,16.195705078125,-0.11239920556545258,0.15393804013729095,0.001832595793530345
1750064037877696300,16.2116962890625,-0.07880161702632904,0.09407325088977814,0.0024434609804302454
1750064037893657000,16.227656982421873,-0.03848451003432274,0.039095375686883926,0.003054326167330146
1750064037909648100,16.243648193359373,-0.00427605677396059,-0.03726277872920036,0
1750064037925609000,16.25960888671875,0.03237585723400116,-0.09651670604944229,0.0006108652451075613
1750064037941600000,16.27560009765625,0.06169738993048668,-0.13561208546161652,0.00427605677396059
1750064037957621800,16.291621826171873,0.0806342139840126,-0.18020524084568024,0.006719517521560192
1750064037973582600,16.30758251953125,0.09896016865968704,-0.21074850857257843,0.007941247895359993
1750064037989573600,16.32357373046875,0.11301007121801376,-0.23029619455337524,0.009773843921720982
1750064038005534500,16.339534423828123,0.11239920556545258,-0.23090706765651703,0.014049900695681572
1750064038021495000,16.3554951171875,0.09957103431224823,-0.21624629199504852,0.01771509274840355
1750064038045451500,16.379451416015623,0.0806342139840126,-0.15943582355976105,0.022602014243602753
1750064038061442600,16.395442626953123,0.05925392732024193,-0.10323622822761536,0.02321287989616394
1750064038085398800,16.419398681640626,0.01466076634824276,-0.010995574295520782,0.01466076634824276
1750064038101359600,16.435359619140623,-0.0006108652451075613,0.036041051149368286,0.010995574295520782
1750064038117381400,16.45138134765625,-0.03237585723400116,0.06169738993048668,0.012828170321881771
1750064038133342000,16.467342041015623,-0.05009094998240471,0.07941248267889023,0.019547687843441963
1750064038149302800,16.483302734375,-0.0659734457731247,0.09651670604944229,0.025656340643763542
1750064038165293800,16.4992939453125,-0.07513642311096191,0.1160643994808197,0.028099801391363144
1750064038181315600,16.515315673828123,-0.0861319974064827,0.12767083942890167,0.021380282938480377
1750064038197307000,16.531306884765623,-0.0861319974064827,0.13500121235847473,0.015882495790719986
1750064038213267500,16.547267333984376,-0.07819075137376785,0.12461651116609573,0.012217304669320583
1750064038229289200,16.563289306640623,-0.07147123664617538,0.10201449692249298,0.01466076634824276
1750064038245311000,16.57931103515625,-0.05314527451992035,0.07635815441608429,0.018325956538319588
1750064038261302300,16.59530224609375,-0.030543262138962746,0.04153883829712868,0.015882495790719986
1750064038277324000,16.611323974609373,-0.009773843921720982,-0.001832595793530345,0.009773843921720982
1750064038293254100,16.627254150390623,0.00427605677396059,-0.029932396486401558,0.006108652334660292
1750064038309184300,16.643184326171873,0.02871066704392433,-0.06169738993048668,0.003054326167330146
1750064038325175600,16.659175537109373,0.04642575979232788,-0.10445795953273773,0.0006108652451075613
1750064038341166800,16.675166748046873,0.05192354694008827,-0.1313360333442688,-0.003054326167330146
1750064038357158000,16.691157958984373,0.05497787147760391,-0.152105450630188,-0.004886921960860491
1750064038373088000,16.707087890625,0.06291911751031876,-0.15454891324043274,-0.00427605677396059
1750064038389109800,16.72310986328125,0.06169738993048668,-0.14355333149433136,-0.004886921960860491
1750064038405101000,16.73910107421875,0.04398229718208313,-0.11728613078594208,0.0006108652451075613
1750064038421122800,16.755122802734373,0.030543262138962746,-0.09224065393209457,0.003054326167330146
1750064038437114000,16.771114013671873,0.019547687843441963,-0.06352998316287994,0.006108652334660292
1750064038453044200,16.787044189453123,-0.0024434609804302454,-0.031154127791523933,0.00855211354792118
1750064038469004800,16.8030048828125,-0.025045474991202354,0.009773843921720982,0.015271631069481373
1750064038484996000,16.81899609375,-0.0403171069920063,0.04948008432984352,0.02015855349600315
1750064038501017900,16.835017822265623,-0.05314527451992035,0.08185594528913498,0.02321287989616394
1750064038517039600,16.85103955078125,-0.059864792972803116,0.10873401165008545,0.021991148591041565
1750064038533000200,16.867000244140623,-0.06108652427792549,0.11545353382825851,0.02076941914856434
1750064038549022000,16.88302197265625,-0.054367005825042725,0.10690141469240189,0.024434609338641167
1750064038564982500,16.898982421875,-0.039706241339445114,0.08429940044879913,0.025045474991202354
1750064038580943400,16.914943359375,-0.024434609338641167,0.0555887371301651,0.025045474991202354
1750064038596934700,16.9309345703125,-0.013439035043120384,0.019547687843441963,0.021380282938480377
1750064038612895200,16.946895263671873,0,-0.012828170321881771,0.01710422709584236
1750064038628886500,16.962886474609373,0.012828170321881771,-0.04764748737215996,0.01038470957428217
1750064038644877600,16.978877685546873,0.018936822190880775,-0.0861319974064827,0.007941247895359993
1750064038660868900,16.994868896484373,0.02321287989616394,-0.10201449692249298,0.00366519158706069
1750064038676921000,17.010921142578123,0.031154127791523933,-0.10751228034496307,-0.0024434609804302454
1750064038692882000,17.0268818359375,0.03481931984424591,-0.10995574295520782,-0.00733038317412138
1750064038708842500,17.042842529296873,0.031154127791523933,-0.10934487730264664,-0.01038470957428217
1750064038724833800,17.058833740234373,0.030543262138962746,-0.09834930300712585,-0.00855211354792118
1750064038740794400,17.07479443359375,0.03176499158143997,-0.08124507963657379,-0.007941247895359993
1750064038756816100,17.090816162109373,0.024434609338641167,-0.05925392732024193,-0.00855211354792118
1750064038772777000,17.10677685546875,0.01038470957428217,-0.039706241339445114,-0.00733038317412138
1750064038796763600,17.130763671875,0.006108652334660292,-0.00855211354792118,0.00427605677396059
1750064038812724200,17.14672412109375,-0.0024434609804302454,0.009162978269159794,0.004886921960860491
1750064038828715500,17.162715576171873,-0.015882495790719986,0.022602014243602753,0.004886921960860491
1750064038844676400,17.17867626953125,-0.021380282938480377,0.030543262138962746,0.00427605677396059
1750064038860667400,17.19466748046875,-0.02321287989616394,0.036651913076639175,0.00366519158706069
1750064038876689200,17.210689208984373,-0.025045474991202354,0.03787364438176155,0.001832595793530345
1750064038892650000,17.22664990234375,-0.018936822190880775,0.02932153269648552,-0.0012217304902151227
1750064038908641000,17.24264111328125,-0.00427605677396059,0.00366519158706069,-0.001832595793530345
1750064038924632300,17.25863232421875,-0.0006108652451075613,-0.025045474991202354,0.0006108652451075613
1750064038940623600,17.27462353515625,0.004886921960860491,-0.05864306539297104,0.00427605677396059
1750064038956614700,17.29061474609375,0.010995574295520782,-0.08491026610136032,0.007941247895359993
1750064038972575500,17.306575439453123,0.015882495790719986,-0.08674286305904388,0.00733038317412138
1750064038988566500,17.32256640625,0.007941247895359993,-0.07452555745840073,0.007941247895359993
1750064039004557800,17.338557861328123,0.001832595793530345,-0.05497787147760391,0.014049900695681572
1750064039020518700,17.3545185546875,-0.003054326167330146,-0.029932396486401558,0.024434609338641167
1750064039036540200,17.3705400390625,-0.007941247895359993,-0.00427605677396059,0.031154127791523933
1750064039052501000,17.3865009765625,-0.01710422709584236,0.01038470957428217,0.028099801391363144
1750064039068492300,17.4024921875,-0.015271631069481373,0.025045474991202354,0.027488935738801956
1750064039084452900,17.418452880859373,-0.018325956538319588,0.03787364438176155,0.03176499158143997
1750064039100413400,17.434413330078126,-0.021991148591041565,0.04337143152952194,0.042760565876960754
1750064039116435200,17.450435302734373,-0.021380282938480377,0.04642575979232788,0.05497787147760391
1750064039132365600,17.466365478515623,-0.021991148591041565,0.04764748737215996,0.06108652427792549
1750064039148326100,17.482326171875,-0.02321287989616394,0.054367005825042725,0.06169738993048668
1750064039164317400,17.4983173828125,-0.021380282938480377,0.06108652427792549,0.05375614017248154
1750064039180339200,17.514339111328123,-0.022602014243602753,0.05925392732024193,0.0507018156349659
1750064039196330200,17.530330322265623,-0.021991148591041565,0.0555887371301651,0.04459316283464432
1750064039212230000,17.54622998046875,-0.016493361443281174,0.042760565876960754,0.03481931984424591
1750064039228190700,17.562190673828123,-0.01038470957428217,0.02321287989616394,0.02015855349600315
1750064039244151300,17.5781513671875,0,0.012217304669320583,0.00427605677396059
1750064039260142600,17.594142578125,0.010995574295520782,-0.0024434609804302454,-0.012828170321881771
1750064039276164400,17.610164306640623,0.02687807008624077,-0.021380282938480377,-0.02015855349600315
1750064039292094500,17.626094482421873,0.03848451003432274,-0.04153883829712868,-0.01771509274840355
1750064039308055000,17.642054931640626,0.04214970022439957,-0.08124507963657379,-0.02015855349600315
1750064039324015900,17.658015869140623,0.04153883829712868,-0.10751228034496307,-0.02015855349600315
1750064039340007200,17.674007080078123,0.039095375686883926,-0.11545353382825851,-0.019547687843441963
1750064039356059400,17.690059326171873,0.03726277872920036,-0.10323622822761536,-0.02015855349600315
1750064039372020000,17.70602001953125,0.031154127791523933,-0.08307767659425735,-0.02015855349600315
1750064039388011300,17.72201123046875,0.02626720629632473,-0.051312681287527084,-0.013439035043120384
1750064039404002300,17.738002197265626,0.021380282938480377,-0.04214970022439957,-0.00427605677396059
1750064039419963100,17.753963134765623,0.012217304669320583,-0.03420845419168472,0.00733038317412138
1750064039435985000,17.76998486328125,0.004886921960860491,-0.028099801391363144,0.019547687843441963
1750064039451915000,17.7859150390625,-0.007941247895359993,-0.02076941914856434,0.02932153269648552
1750064039467906300,17.80190625,-0.02626720629632473,-0.003054326167330146,0.03787364438176155
1750064039483867000,17.817866943359373,-0.03787364438176155,0.02687807008624077,0.04703662544488907
1750064039499858200,17.833858154296873,-0.04581489413976669,0.06719517707824707,0.05619960278272629
1750064039515849500,17.849849365234373,-0.04948008432984352,0.08979719132184982,0.06291911751031876
1750064039531810000,17.86581005859375,-0.05375614017248154,0.1014036312699318,0.06780604273080826
1750064039547801300,17.88180126953125,-0.05619960278272629,0.09285151958465576,0.06414084881544113
1750064039571757600,17.905757568359373,-0.04948008432984352,0.06658431142568588,0.05314527451992035
1750064039587748900,17.921748779296873,-0.042760565876960754,0.05253441259264946,0.045204028487205505
1750064039603709400,17.93770947265625,-0.021380282938480377,0.03787364438176155,0.03298672288656235
1750064039619670300,17.953670166015623,0.0012217304902151227,0.018325956538319588,0.02687807008624077
1750064039635722500,17.969722412109373,0.014049900695681572,-0.019547687843441963,0.022602014243602753
1750064039651683000,17.98568310546875,0.012217304669320583,-0.06230825558304787,0.018936822190880775
1750064039667674400,18.00167431640625,0.018325956538319588,-0.09712757170200348,0.009773843921720982
1750064039683696000,18.017696044921873,0.02932153269648552,-0.11301007121801376,-0.01038470957428217
1750064039699656700,18.03365673828125,0.03176499158143997,-0.10384709388017654,-0.02626720629632473
1750064039715678500,18.049678466796873,0.027488935738801956,-0.09773843735456467,-0.03176499158143997
1750064039731639000,18.06563916015625,0.00855211354792118,-0.08124507963657379,-0.03237585723400116
1750064039747630300,18.08163037109375,-0.006108652334660292,-0.05192354694008827,-0.0354301854968071
1750064039763621600,18.09762158203125,-0.00427605677396059,-0.0024434609804302454,-0.0403171069920063
1750064039779582200,18.113582275390623,-0.0024434609804302454,0.04581489413976669,-0.0403171069920063
1750064039795573500,18.129573486328123,0.004886921960860491,0.06108652427792549,-0.031154127791523933
1750064039811503600,18.145503662109373,0.00855211354792118,0.031154127791523933,-0.005497787147760391
1750064039827495000,18.161494873046873,0.006108652334660292,-0.014049900695681572,0.018325956538319588
1750064039843425000,18.177425048828123,-0.003054326167330146,-0.05803219974040985,0.03481931984424591
1750064039859416300,18.193416259765623,-0.004886921960860491,-0.05742133408784866,0.03787364438176155
1750064039875407400,18.209407470703123,0.006108652334660292,-0.019547687843441963,0.03787364438176155
1750064039891368200,18.2253681640625,0.016493361443281174,0.014049900695681572,0.03848451003432274
1750064039907298300,18.24129833984375,0.01466076634824276,0.015882495790719986,0.04703662544488907
1750064039923259100,18.257259033203123,0.012828170321881771,-0.01710422709584236,0.05375614017248154
1750064039939219700,18.2732197265625,0.013439035043120384,-0.051312681287527084,0.0555887371301651
1750064039955211000,18.2892109375,0.00733038317412138,-0.06658431142568588,0.048258353024721146
1750064039971202000,18.3052021484375,-0.0012217304902151227,-0.04337143152952194,0.04214970022439957
1750064039987193300,18.321193359375,-0.00366519158706069,-0.007941247895359993,0.03726277872920036
1750064040003123500,18.33712353515625,-0.012828170321881771,0.029932396486401558,0.02932153269648552
1750064040019084300,18.353084228515623,-0.03176499158143997,0.04886921867728233,0.01771509274840355
1750064040035106000,18.36910595703125,-0.03787364438176155,0.05619960278272629,0.006719517521560192
1750064040051036200,18.3850361328125,-0.031154127791523933,0.05192354694008827,-0.00366519158706069
1750064040066996700,18.400996826171873,-0.027488935738801956,0.039095375686883926,-0.010995574295520782
1750064040082957600,18.41695751953125,-0.025656340643763542,0.018325956538319588,-0.013439035043120384
1750064040098948600,18.432948486328126,-0.019547687843441963,-0.004886921960860491,-0.02015855349600315
1750064040114940000,18.44893994140625,-0.015271631069481373,-0.01710422709584236,-0.025656340643763542
1750064040130870000,18.4648701171875,-0.013439035043120384,-0.02321287989616394,-0.03237585723400116
1750064040146861300,18.480861328125,-0.00427605677396059,-0.025045474991202354,-0.03298672288656235
1750064040162822000,18.49682177734375,0.00855211354792118,-0.0403171069920063,-0.028099801391363144
1750064040178813200,18.512813232421873,0.012828170321881771,-0.06291911751031876,-0.015882495790719986
1750064040194804500,18.528804443359373,0.01710422709584236,-0.08246681094169617,-0.01038470957428217
1750064040210765000,18.54476513671875,0.02321287989616394,-0.09529497474431992,-0.009773843921720982
1750064040226756400,18.56075634765625,0.027488935738801956,-0.09407325088977814,-0.006719517521560192
1750064040242717000,18.576717041015623,0.02932153269648552,-0.08307767659425735,0.00366519158706069
1750064040258708200,18.592708251953123,0.033597588539123535,-0.08368854224681854,0.018325956538319588
1750064040274730000,18.60872998046875,0.028099801391363144,-0.08491026610136032,0.02687807008624077
1750064040290690600,18.624690673828123,0.015271631069481373,-0.0757472887635231,0.030543262138962746
1750064040306681900,18.640681884765623,0.006108652334660292,-0.056810468435287476,0.02932153269648552
1750064040322673200,18.656673095703123,-0.00366519158706069,-0.028099801391363144,0.025656340643763542
1750064040338664200,18.672664306640623,-0.018936822190880775,0.0024434609804302454,0.02932153269648552
1750064040354655500,18.688655517578123,-0.02932153269648552,0.024434609338641167,0.02932153269648552
1750064040370616300,18.7046162109375,-0.04214970022439957,0.0403171069920063,0.031154127791523933
1750064040386637800,18.720637939453123,-0.05192354694008827,0.05314527451992035,0.029932396486401558
1750064040402629000,18.736629150390623,-0.05925392732024193,0.06902777403593063,0.02626720629632473
1750064040418620400,18.752620361328123,-0.05253441259264946,0.07513642311096191,0.02382374368607998
1750064040434642200,18.76864208984375,-0.045204028487205505,0.0708603709936142,0.021991148591041565
1750064040450602800,18.784602783203123,-0.04398229718208313,0.06108652427792549,0.015882495790719986
1750064040466594000,18.800593994140623,-0.03176499158143997,0.04459316283464432,0.009162978269159794
1750064040482524200,18.816524169921873,-0.006719517521560192,0.010995574295520782,-0.003054326167330146
1750064040498515500,18.832515380859373,0.00427605677396059,-0.033597588539123535,-0.014049900695681572
1750064040514506500,18.848506591796873,0.019547687843441963,-0.07330382615327835,-0.02382374368607998
1750064040530467300,18.86446728515625,0.03848451003432274,-0.12034045159816742,-0.02687807008624077
1750064040546458400,18.880458251953126,0.042760565876960754,-0.13927727937698364,-0.028099801391363144
1750064040562449700,18.89644970703125,0.045204028487205505,-0.14294247329235077,-0.028099801391363144
1750064040578410500,18.912410400390623,0.051312681287527084,-0.13072516024112701,-0.02687807008624077
1750064040594462700,18.928462646484373,0.05253441259264946,-0.11484266817569733,-0.024434609338641167
1750064040610423300,18.94442333984375,0.03726277872920036,-0.0959058403968811,-0.015882495790719986
1750064040626414600,18.96041455078125,0.025045474991202354,-0.08002334833145142,-0.007941247895359993
1750064040642344700,18.9763447265625,0.00855211354792118,-0.0555887371301651,-0.0012217304902151227
1750064040658336000,18.9923359375,-0.013439035043120384,-0.01160643994808197,0.00855211354792118
1750064040674327000,19.0083271484375,-0.024434609338641167,0.031154127791523933,0.015271631069481373
1750064040690287900,19.024287841796873,-0.025656340643763542,0.0708603709936142,0.01466076634824276
1750064040706279000,19.04027880859375,-0.029932396486401558,0.07635815441608429,0.009162978269159794
1750064040722239700,19.05623974609375,-0.0354301854968071,0.060475658625364304,0.01466076634824276
1750064040738231000,19.07223095703125,-0.0354301854968071,0.027488935738801956,0.021380282938480377
1750064040754191600,19.088191650390623,-0.029932396486401558,-0.0012217304902151227,0.027488935738801956
1750064040770152400,19.10415234375,-0.03237585723400116,-0.015271631069481373,0.024434609338641167
1750064040786143500,19.1201435546875,-0.025656340643763542,-0.00855211354792118,0.014049900695681572
1750064040802134800,19.136134765625,-0.01038470957428217,0.001832595793530345,0.004886921960860491
1750064040818126000,19.1521259765625,-0.006108652334660292,0.00366519158706069,0.00733038317412138
1750064040834147600,19.168147705078123,-0.001832595793530345,-0.014049900695681572,0.012217304669320583
1750064040850078000,19.184077880859373,0.009162978269159794,-0.05009094998240471,0.01466076634824276
1750064040866038500,19.20003857421875,0.009773843921720982,-0.08552113175392151,0.004886921960860491
1750064040882029800,19.21602978515625,0.009773843921720982,-0.1062905490398407,-0.014049900695681572
1750064040906047000,19.240046875,0.02626720629632473,-0.10323622822761536,-0.02932153269648552
1750064040922007800,19.2560078125,0.029932396486401558,-0.1007927656173706,-0.02321287989616394
1750064040937968400,19.271968505859373,0.03298672288656235,-0.09957103431224823,-0.010995574295520782
1750064040953959700,19.287959716796873,0.036651913076639175,-0.09834930300712585,-0.006108652334660292
1750064040969951000,19.303950927734373,0.03237585723400116,-0.08735372871160507,-0.00366519158706069
1750064040985911600,19.31991162109375,0.018325956538319588,-0.06169738993048668,0.0012217304902151227
1750064041001902800,19.33590283203125,0.014049900695681572,-0.031154127791523933,0.006719517521560192
1750064041017955000,19.351955078125,0.01771509274840355,-0.007941247895359993,0.016493361443281174
1750064041033915600,19.36791552734375,0.022602014243602753,0.015271631069481373,0.02687807008624077
1750064041049846000,19.383845947265623,0.031154127791523933,0.021991148591041565,0.03298672288656235
1750064041065837000,19.399837158203123,0.03848451003432274,0.01038470957428217,0.04214970022439957
1750064041081828400,19.415828369140623,0.03176499158143997,-0.015271631069481373,0.04581489413976669
1750064041097850000,19.43185009765625,0.018325956538319588,-0.031154127791523933,0.04214970022439957
1750064041113872000,19.447871826171873,0.013439035043120384,-0.03298672288656235,0.021991148591041565
1750064041129771500,19.463771484375,0.012217304669320583,-0.02015855349600315,0.0012217304902151227
1750064041145732000,19.479732177734373,0.005497787147760391,0.006719517521560192,-0.009773843921720982
1750064041161693000,19.49569287109375,0.001832595793530345,0.022602014243602753,-0.001832595793530345
1750064041177684000,19.51168408203125,0,0.01771509274840355,0.005497787147760391
1750064041193705700,19.527705810546873,-0.00733038317412138,-0.00427605677396059,0.003054326167330146
1750064041209636000,19.543635986328123,-0.015271631069481373,-0.025045474991202354,-0.009773843921720982
1750064041225596700,19.5595966796875,-0.018325956538319588,-0.0403171069920063,-0.02687807008624077
1750064041241618400,19.575618408203123,-0.02626720629632473,-0.04214970022439957,-0.03726277872920036
1750064041257640200,19.59164013671875,-0.025656340643763542,-0.03176499158143997,-0.033597588539123535
1750064041281596400,19.615596435546873,-0.01771509274840355,-0.027488935738801956,-0.022602014243602753
1750064041297587700,19.631587646484373,-0.018325956538319588,-0.030543262138962746,-0.018936822190880775
1750064041313609500,19.647609375,-0.012828170321881771,-0.03237585723400116,-0.010995574295520782
1750064041329570000,19.663570068359373,0.012217304669320583,-0.03420845419168472,-0.0012217304902151227
1750064041345561300,19.679561279296873,0.039706241339445114,-0.025045474991202354,0.013439035043120384
1750064041361583000,19.6955830078125,0.060475658625364304,-0.013439035043120384,0.031154127791523933
1750064041377574100,19.71157421875,0.08002334833145142,-0.012828170321881771,0.06169738993048668
1750064041393596000,19.727595947265623,0.07635815441608429,-0.024434609338641167,0.08735372871160507
1750064041409495600,19.74349560546875,0.05314527451992035,-0.03848451003432274,0.10201449692249298
1750064041425456400,19.759456298828123,0.02932153269648552,-0.03237585723400116,0.09468411654233932
1750064041441447400,19.775447509765623,0.010995574295520782,-0.00855211354792118,0.07513642311096191
1750064041457469200,19.79146923828125,-0.00366519158706069,0.03420845419168472,0.05803219974040985
1750064041473460500,19.80746044921875,-0.009773843921720982,0.06291911751031876,0.05864306539297104
1750064041489390600,19.823390625,-0.004886921960860491,0.06475171446800232,0.06780604273080826
1750064041505382000,19.8393818359375,-0.015271631069481373,0.036041051149368286,0.07635815441608429
1750064041529399000,19.86339892578125,-0.056810468435287476,-0.015882495790719986,0.0507018156349659
1750064041545420800,19.8794208984375,-0.07880161702632904,-0.03237585723400116,0.007941247895359993
1750064041561381600,19.895381591796873,-0.11178833991289139,-0.027488935738801956,-0.04764748737215996
1750064041577372700,19.91137255859375,-0.13255776464939117,0.010995574295520782,-0.07330382615327835
1750064041593394400,19.92739453125,-0.13988813757896423,0.07880161702632904,-0.06841690838336945
1750064041609385700,19.9433857421875,-0.13072516024112701,0.14049901068210602,-0.03848451003432274
1750064041625346300,19.95934619140625,-0.11850785464048386,0.16859880089759827,-0.01466076634824276
1750064041641337600,19.975337646484373,-0.09346238523721695,0.1514945775270462,-0.004886921960860491
1750064041657359400,19.991359375,-0.06963863968849182,0.09712757170200348,-0.01160643994808197
1750064041673350700,20.0073505859375,-0.05314527451992035,-0.00427605677396059,-0.030543262138962746
1750064041689280800,20.02328076171875,-0.031154127791523933,-0.12034045159816742,-0.04581489413976669
1750064041705241300,20.039241455078123,-0.010995574295520782,-0.20463985204696655,-0.045204028487205505
1750064041721232600,20.055232666015623,0.007941247895359993,-0.2528982162475586,-0.03176499158143997
1750064041737254400,20.07125439453125,0.027488935738801956,-0.24678955972194672,-0.01160643994808197
1750064041753245700,20.08724560546875,0.045204028487205505,-0.2076941877603531,0.009773843921720982
1750064041769175800,20.10317578125,0.045204028487205505,-0.16249015927314758,0.02076941914856434
1750064041785136400,20.119136474609373,0.029932396486401558,-0.12522737681865692,0.025045474991202354
1750064041801127700,20.135127685546873,0.01466076634824276,-0.08124507963657379,0.02076941914856434
1750064041817088300,20.151088134765626,-0.006719517521560192,-0.042760565876960754,0.012217304669320583
1750064041833079600,20.16707958984375,-0.04581489413976669,-0.006108652334660292,-0.001832595793530345
1750064041849070800,20.18307080078125,-0.07269296050071716,0.012828170321881771,-0.02015855349600315
1750064041865031400,20.199031494140623,-0.08491026610136032,0.02687807008624077,-0.027488935738801956
1750064041880992300,20.2149921875,-0.10445795953273773,0.0403171069920063,-0.02626720629632473
1750064041897014000,20.231013916015623,-0.11423180252313614,0.05497787147760391,-0.01710422709584236
1750064041913005000,20.247005126953123,-0.11239920556545258,0.06536258012056351,-0.006719517521560192
