time,seconds_elapsed,z,y,x
1750064021815085600,0.14908544921875,-0.19792033731937408,0.17470745742321014,0.02382374368607998
1750064021831076900,0.165076904296875,-0.19792033731937408,0.17470745742321014,0.02382374368607998
1750064021847037400,0.181037353515625,-0.19792033731937408,0.17470745742321014,0.02382374368607998
1750064021863059200,0.19705908203125,-0.19792033731937408,0.17470745742321014,0.02382374368607998
1750064021879020000,0.21302001953125,-0.19792033731937408,0.17470745742321014,0.02382374368607998
1750064021895011000,0.229010986328125,-0.19792033731937408,0.17470745742321014,0.02382374368607998
1750064021919028500,0.253028564453125,0.06719517707824707,0.07757988572120667,-0.054367005825042725
1750064021934958600,0.26895849609375,0.07147123664617538,0.06475171446800232,-0.039095375686883926
1750064021950889000,0.284888916015625,0.09162978827953339,0.004886921960860491,-0.03787364438176155
1750064021966849500,0.300849609375,0.10934487730264664,-0.03787364438176155,-0.03726277872920036
1750064021982871300,0.316871337890625,0.10567969083786011,-0.02015855349600315,-0.03237585723400116
1750064021998862600,0.332862548828125,0.08429940044879913,-0.0024434609804302454,-0.04398229718208313
1750064022014792700,0.348792724609375,0.07880161702632904,-0.006719517521560192,-0.06414084881544113
1750064022038779400,0.372779296875,0.09040805697441101,-0.015271631069481373,-0.07696902006864548
1750064022062736000,0.39673583984375,0.06536258012056351,0.06902777403593063,0.06475171446800232
1750064022078727000,0.412726806640625,0.04459316283464432,0.06658431142568588,0.15332718193531036
1750064022094626600,0.42862646484375,0.04337143152952194,0.05497787147760391,0.17104226350784302
1750064022110617900,0.444617919921875,0.05864306539297104,0.016493361443281174,0.13316862285137177
1750064022126609200,0.460609130859375,0.07819075137376785,-0.00733038317412138,0.08674286305904388
1750064022142631000,0.476630859375,0.09529497474431992,-0.01160643994808197,0.05803219974040985
1750064022158591500,0.492591552734375,0.10751228034496307,-0.00855211354792118,0.0403171069920063
1750064022198569500,0.532569580078125,0.08674286305904388,-0.029932396486401558,0.014049900695681572
1750064022230460400,0.56446044921875,0.06230825558304787,-0.009773843921720982,0.15943582355976105
1750064022246390500,0.580390625,0.054367005825042725,-0.028099801391363144,0.21991148591041565
1750064022262442800,0.59644287109375,0.042760565876960754,-0.07147123664617538,0.22052235901355743
1750064022278434000,0.61243408203125,0.04337143152952194,-0.0555887371301651,0.18020524084568024
1750064022294364200,0.6283642578125,0.04337143152952194,-0.010995574295520782,0.13255776464939117
1750064022310325000,0.644324951171875,0.042760565876960754,0.00366519158706069,0.1111774742603302
1750064022326285600,0.66028564453125,0.0354301854968071,-0.01466076634824276,0.10506882518529892
1750064022342307300,0.676307373046875,0.02076941914856434,-0.08002334833145142,0.08552113175392151
1750064022358237400,0.692237548828125,0.018325956538319588,-0.10323622822761536,0.05619960278272629
1750064022374167800,0.708167724609375,0.01771509274840355,-0.06902777403593063,0.028099801391363144
1750064022390158800,0.724158935546875,0.018936822190880775,-0.06230825558304787,0.024434609338641167
1750064022406119700,0.74011962890625,0.025045474991202354,-0.07024950534105301,0.03481931984424591
1750064022422110700,0.75611083984375,0.02687807008624077,-0.1062905490398407,0.02687807008624077
1750064022438071600,0.772071533203125,0.03176499158143997,-0.12095131725072861,0.0024434609804302454
1750064022454001700,0.788001708984375,0.036041051149368286,-0.08979719132184982,-0.025045474991202354
1750064022469962200,0.803962158203125,0.031154127791523933,-0.05497787147760391,-0.025656340643763542
1750064022485892600,0.819892578125,0.02382374368607998,-0.022602014243602753,0.01771509274840355
1750064022501944800,0.83594482421875,0.01771509274840355,-0.02932153269648552,0.08246681094169617
1750064022517936000,0.85193603515625,0.010995574295520782,-0.07452555745840073,0.09834930300712585
1750064022533866200,0.8678662109375,0.02076941914856434,-0.10445795953273773,0.051312681287527084
1750064022549796400,0.88379638671875,0.0354301854968071,-0.08735372871160507,-0.01771509274840355
1750064022565818000,0.899818115234375,0.04153883829712868,-0.013439035043120384,-0.07452555745840073
1750064022581840000,0.91583984375,0.04092797264456749,0.02626720629632473,-0.08124507963657379
1750064022597800400,0.931800537109375,0.04153883829712868,-0.001832595793530345,-0.06414084881544113
1750064022613791700,0.947791748046875,0.054367005825042725,-0.06230825558304787,-0.04398229718208313
1750064022629783000,0.963782958984375,0.07269296050071716,-0.10995574295520782,-0.04886921867728233
1750064022645743600,0.97974365234375,0.07757988572120667,-0.08674286305904388,-0.06780604273080826
1750064022661795800,0.9957958984375,0.07696902006864548,-0.060475658625364304,-0.09162978827953339
1750064022677787100,1.011787109375,0.08735372871160507,-0.0757472887635231,-0.11239920556545258
1750064022693717200,1.02771728515625,0.10445795953273773,-0.1007927656173706,-0.13011430203914642
1750064022709677800,1.043677734375,0.11178833991289139,-0.10567969083786011,-0.14477506279945374
1750064022725669000,1.059669189453125,0.10995574295520782,-0.08735372871160507,-0.14477506279945374
1750064022741660400,1.075660400390625,0.08918632566928864,-0.0555887371301651,-0.11056660860776901
1750064022757621000,1.09162109375,0.054367005825042725,-0.02076941914856434,-0.04764748737215996
1750064022773581800,1.107581787109375,0.014049900695681572,0.015271631069481373,0.05497787147760391
1750064022789603600,1.123603515625,0.0006108652451075613,0.001832595793530345,0.13500121235847473
1750064022805564200,1.139564208984375,0.007941247895359993,-0.018325956538319588,0.14905111491680145
1750064022821586000,1.1555859375,0.03176499158143997,-0.027488935738801956,0.10323622822761536
1750064022837577200,1.1715771484375,0.045204028487205505,-0.021380282938480377,0.03787364438176155
1750064022853507300,1.18750732421875,0.0507018156349659,0.02076941914856434,-0.010995574295520782
1750064022869468000,1.203468017578125,0.05864306539297104,0.019547687843441963,-0.02076941914856434
1750064022885459200,1.219459228515625,0.05864306539297104,0.00427605677396059,0.0006108652451075613
1750064022901481000,1.23548095703125,0.04214970022439957,-0.03298672288656235,0.00855211354792118
1750064022917441500,1.251441650390625,0.036651913076639175,-0.04642575979232788,-0.01710422709584236
1750064022933402400,1.26740234375,0.045204028487205505,-0.013439035043120384,-0.07513642311096191
1750064022949424000,1.283424072265625,0.0555887371301651,0.01038470957428217,-0.13439035415649414
1750064022965384700,1.299384765625,0.06475171446800232,0.009162978269159794,-0.17898350954055786
1750064022981376000,1.3153759765625,0.0757472887635231,0.00427605677396059,-0.20097467303276062
1750064022997367000,1.331366943359375,0.07819075137376785,0,-0.19058994948863983
1750064023013328000,1.347327880859375,0.08368854224681854,0.00366519158706069,-0.15943582355976105
1750064023029319200,1.363319091796875,0.09040805697441101,0.01160643994808197,-0.13011430203914642
1750064023045279700,1.37927978515625,0.09712757170200348,0.010995574295520782,-0.13316862285137177
1750064023061271000,1.39527099609375,0.1111774742603302,0.02015855349600315,-0.16982053220272064
1750064023077231600,1.411231689453125,0.12095131725072861,0.033597588539123535,-0.19303341209888458
1750064023093192400,1.4271923828125,0.10506882518529892,0.08124507963657379,-0.18631389737129211
1750064023109153000,1.443153076171875,0.09712757170200348,0.05925392732024193,-0.16371189057826996
1750064023125113900,1.45911376953125,0.09162978827953339,0.00366519158706069,-0.15760323405265808
1750064023141135400,1.47513525390625,0.07941248267889023,-0.005497787147760391,-0.15882496535778046
1750064023165061000,1.49906103515625,0.06169738993048668,0.03420845419168472,-0.16371189057826996
1750064023181083000,1.515082763671875,0.06291911751031876,0.03726277872920036,-0.1411098688840866
1750064023205008600,1.539008544921875,0.03787364438176155,-0.02932153269648552,-0.09468411654233932
1750064023221000000,1.555,0.048258353024721146,-0.06963863968849182,-0.09162978827953339
1750064023236960800,1.570960693359375,0.06841690838336945,-0.04092797264456749,-0.09346238523721695
1750064023252921300,1.58692138671875,0.07147123664617538,-0.02626720629632473,-0.08979719132184982
1750064023268912600,1.60291259765625,0.06841690838336945,-0.016493361443281174,-0.0659734457731247
1750064023292838400,1.62683837890625,0.07330382615327835,0.021991148591041565,0.02015855349600315
1750064023308799000,1.642799072265625,0.06108652427792549,0.001832595793530345,0.07452555745840073
1750064023324790300,1.658790283203125,0.054367005825042725,0.0024434609804302454,0.12889257073402405
1750064023340812000,1.67481201171875,0.05864306539297104,0.06536258012056351,0.17348572611808777
1750064023356742100,1.6907421875,0.05742133408784866,-0.07147123664617538,0.16798794269561768
1750064023372672300,1.70667236328125,0.07208210229873657,-0.029932396486401558,0.1466076523065567
1750064023388694000,1.722694091796875,0.0708603709936142,0.02076941914856434,0.1014036312699318
1750064023404654800,1.73865478515625,0.09407325088977814,0.04337143152952194,0.08918632566928864
1750064023420646000,1.75464599609375,0.11301007121801376,0.06352998316287994,0.08368854224681854
1750064023436606700,1.770606689453125,0.12339477986097336,0.05864306539297104,0.07208210229873657
1750064023452536800,1.786536865234375,0.11362093687057495,0.0507018156349659,0.04948008432984352
1750064023468528000,1.802528076171875,0.07635815441608429,0.039706241339445114,0.0507018156349659
1750064023484488700,1.81848876953125,0.025045474991202354,0.04764748737215996,0.07757988572120667
1750064023500510500,1.834510498046875,0.004886921960860491,0.00733038317412138,0.09529497474431992
1750064023516440600,1.850440673828125,0.01710422709584236,-0.030543262138962746,0.11423180252313614
1750064023532370700,1.86637060546875,0.033597588539123535,-0.030543262138962746,0.1362229436635971
1750064023548331500,1.88233154296875,0.04337143152952194,-0.051312681287527084,0.16310101747512817
1750064023564292000,1.8982919921875,0.059864792972803116,-0.00855211354792118,0.1667662113904953
1750064023580344300,1.91434423828125,0.04153883829712868,-0.012828170321881771,0.09712757170200348
1750064023596335600,1.930335693359375,0.02382374368607998,-0.059864792972803116,-0.019547687843441963
1750064023612265700,1.946265625,0.036651913076639175,-0.022602014243602753,-0.07880161702632904
1750064023628226600,1.9622265625,0.07208210229873657,-0.019547687843441963,-0.08368854224681854
1750064023644187100,1.978187255859375,0.08429940044879913,-0.05375614017248154,-0.04092797264456749
1750064023660209000,1.994208984375,0.05925392732024193,-0.08429940044879913,-0.00427605677396059
1750064023676200200,2.0102001953125,0.031154127791523933,-0.06108652427792549,0.03237585723400116
1750064023692130300,2.02613037109375,0.021991148591041565,-0.02871066704392433,0.06352998316287994
1750064023708060400,2.042060302734375,0.0024434609804302454,-0.009773843921720982,0.10445795953273773
1750064023724082200,2.058082275390625,-0.027488935738801956,-0.03787364438176155,0.11301007121801376
1750064023740073500,2.074073486328125,-0.03420845419168472,-0.06169738993048668,0.07880161702632904
1750064023756064800,2.090064697265625,-0.02382374368607998,-0.0507018156349659,0.009162978269159794
1750064023772025300,2.106025390625,-0.01038470957428217,-0.03298672288656235,-0.054367005825042725
1750064023788047000,2.122047119140625,0,-0.02321287989616394,-0.06169738993048668
1750064023804038400,2.138038330078125,-0.01038470957428217,-0.030543262138962746,-0.036041051149368286
1750064023820060000,2.154059814453125,-0.02932153269648552,-0.036041051149368286,-0.00733038317412138
1750064023836051200,2.17005126953125,-0.033597588539123535,-0.0507018156349659,0.01466076634824276
1750064023851981300,2.185981201171875,-0.005497787147760391,-0.08979719132184982,0.02321287989616394
1750064023868003000,2.202003173828125,0.019547687843441963,-0.10384709388017654,0.02871066704392433
1750064023883964000,2.2179638671875,0.03726277872920036,-0.09407325088977814,0.03481931984424591
1750064023899985700,2.233985595703125,0.039706241339445114,-0.08979719132184982,0.027488935738801956
1750064023915946200,2.2499462890625,0.03787364438176155,-0.07024950534105301,0.00366519158706069
1750064023931907000,2.265906982421875,0.03726277872920036,-0.07147123664617538,-0.007941247895359993
1750064023947837200,2.281837158203125,0.04398229718208313,-0.08552113175392151,0.009773843921720982
1750064023963859000,2.29785888671875,0.04398229718208313,-0.0659734457731247,0.06902777403593063
1750064023979880700,2.313880615234375,0.03420845419168472,-0.05864306539297104,0.11239920556545258
1750064023995841300,2.32984130859375,0.02076941914856434,-0.08796459436416626,0.10506882518529892
1750064024011771400,2.345771484375,0.031154127791523933,-0.12339477986097336,0.02626720629632473
1750064024027793200,2.361793212890625,0.015271631069481373,-0.1111774742603302,-0.05742133408784866
1750064024043754000,2.37775390625,-0.06108652427792549,-0.036041051149368286,-0.12095131725072861
1750064024059775500,2.393775390625,-0.13439035415649414,0.13744467496871948,-0.1618792861700058
1750064024075736300,2.409736328125,-0.16737708449363708,0.3481931984424591,-0.23457226157188416
1750064024091697000,2.42569677734375,-0.2174680233001709,0.7049384713172913,-0.3878994286060333
1750064024107657700,2.44165771484375,-0.21441370248794556,1.1172724962234497,-0.5864306092262268
1750064024123648800,2.457648681640625,-0.08491026610136032,1.3365731239318848,-0.7733554244041443
1750064024139670500,2.47367041015625,-0.009773843921720982,1.1606439352035522,-0.779464066028595
1750064024155661800,2.489661865234375,-0.02871066704392433,0.6908885836601257,-0.5900958180427551
1750064024171592000,2.505592041015625,-0.03787364438176155,0.13500121235847473,-0.313373863697052
1750064024187552800,2.521552734375,-0.02382374368607998,-0.16982053220272064,-0.07513642311096191
1750064024203483000,2.53748291015625,-0.02382374368607998,-0.30482175946235657,0.15454891324043274
1750064024219504600,2.553504638671875,-0.02687807008624077,-0.33658674359321594,0.2541199326515198
1750064024235465200,2.56946533203125,-0.001832595793530345,-0.33047810196876526,0.2590068578720093
1750064024251426000,2.585426025390625,0.0403171069920063,-0.3677408695220947,0.2376265823841095
1750064024267417000,2.6014169921875,0.05619960278272629,-0.37568211555480957,0.242513507604599
1750064024283408400,2.617408447265625,0.06658431142568588,-0.33658674359321594,0.251676470041275
1750064024299430100,2.63343017578125,0.04642575979232788,-0.37079519033432007,0.252287358045578
1750064024315390700,2.649390625,-0.03298672288656235,-0.23335053026676178,0.2590068578720093
1750064024331382000,2.665382080078125,-0.04642575979232788,-0.16432274878025055,0.22602014243602753
1750064024347373300,2.681373291015625,-0.02932153269648552,-0.20402899384498596,0.18387043476104736
1750064024363364400,2.6973642578125,-0.03237585723400116,-0.24068090319633484,0.1417207419872284
1750064024379416800,2.713416748046875,-0.025656340643763542,-0.18509216606616974,0.09346238523721695
1750064024395377400,2.72937744140625,0.01160643994808197,-0.1007927656173706,0.03176499158143997
1750064024411368700,2.74536865234375,0.04886921867728233,-0.08918632566928864,0.0006108652451075613
1750064024427359700,2.76135986328125,0.06658431142568588,-0.07452555745840073,0.018325956538319588
1750064024443351000,2.77735107421875,0.054367005825042725,-0.07208210229873657,0.07513642311096191
1750064024459372800,2.793372802734375,0.01771509274840355,-0.07269296050071716,0.12217304855585098
1750064024475303000,2.809302978515625,-0.021991148591041565,-0.05742133408784866,0.1270599663257599
1750064024491263700,2.825263671875,-0.06291911751031876,-0.05864306539297104,0.0861319974064827
1750064024507224300,2.841224365234375,-0.10018189996480942,-0.006719517521560192,0.012217304669320583
1750064024523154400,2.857154541015625,-0.17531833052635193,0.39156460762023926,-0.12522737681865692
1750064024539145700,2.873145751953125,-0.3017674386501312,1.006095051765442,-0.3646865487098694
1750064024555075800,2.889075927734375,-0.5455026626586914,1.701259732246399,-0.7348709106445312
1750064024571036700,2.90503662109375,-0.8918632864952087,1.55892813205719,-1.2180652618408203
1750064024586966800,2.920966796875,-0.7965682744979858,2.0610592365264893,-1.6603317260742188
1750064024602927400,2.93692724609375,-0.25534167885780334,1.966986060142517,-2.258979558944702
1750064024618949000,2.95294921875,0.13561208546161652,1.3298536539077759,-2.613281488418579
1750064024634940400,2.9689404296875,0.313373863697052,1.1313223838806152,-2.7122416496276855
1750064024650870500,2.98487060546875,0.30543261766433716,1.1386528015136719,-2.5857925415039062
1750064024666861800,3.00086181640625,0.22846360504627228,1.3347405195236206,-2.3157901763916016
1750064024682852900,3.016852783203125,0.16371189057826996,1.2180652618408203,-1.786780834197998
1750064024698874600,3.03287451171875,0.3323107063770294,0.2877175211906433,-1.0482447147369385
1750064024714835500,3.04883544921875,0.4190535545349121,0.16371189057826996,-0.23640485107898712
1750064024730765600,3.064765625,0.5290092825889587,0.1563815027475357,0.7189884185791016
1750064024746726400,3.080726318359375,0.5412266254425049,-0.039095375686883926,1.395827054977417
1750064024762717400,3.096717529296875,0.4343251883983612,-0.5632177591323853,1.919338583946228
1750064024778739200,3.1127392578125,0.21074850857257843,-0.8454375267028809,2.121535062789917
1750064024794730500,3.12873046875,-0.17837265133857727,-1.595579981803894,1.6865988969802856
1750064024810630100,3.144630126953125,-0.49724429845809937,-1.910786509513855,1.045190453529358
1750064024826621200,3.16062109375,-0.6994407176971436,-1.4343116283416748,0.6676757335662842
1750064024842582000,3.17658203125,-0.7739662528038025,-0.7929030656814575,0.22113321721553802
1750064024858603800,3.192603759765625,-0.6133087277412415,-0.4807509481906891,-0.11423180252313614
1750064024874594800,3.2085947265625,-0.3701843321323395,-0.6126978397369385,-0.32498031854629517
1750064024890555600,3.2245556640625,-0.15821409225463867,-0.9896016716957092,-0.3066543638706207
1750064024914542300,3.248542236328125,0.06841690838336945,-0.7623597979545593,0.02015855349600315
1750064024930442000,3.26444189453125,0.12950342893600464,-1.1582005023956299,0.14294247329235077
1750064024946372400,3.280372314453125,0.28527405858039856,-1.813048005104065,0.0708603709936142
1750064024962363400,3.29636328125,0.5229006409645081,-2.27852725982666,-0.18875735998153687
1750064024978354700,3.312354736328125,0.7287622094154358,-1.5900822877883911,-0.3536909818649292
1750064024994315500,3.3283154296875,0.7935139536857605,-0.3732386529445648,0.06108652427792549
1750064025010276000,3.344276123046875,0.627358615398407,0.3084869384765625,0.4080579876899719
1750064025026236700,3.360236572265625,0.1771509200334549,0.5149593949317932,0.5253441333770752
1750064025042197500,3.376197509765625,0.0012217304902151227,0.1313360333442688,0.26083946228027344
1750064025058249700,3.392249755859375,0.05314527451992035,-0.5577199459075928,-0.1765400618314743
1750064025074241000,3.408240966796875,0.45204028487205505,-0.8185594081878662,-0.4245513379573822
1750064025090201600,3.42420166015625,0.988990843296051,-0.5564982295036316,-0.46792277693748474
1750064025106131700,3.440131591796875,0.9743300676345825,0.8191702961921692,-0.20952677726745605
1750064025122092500,3.456092529296875,1.1936306953430176,0.8472700715065002,-0.001832595793530345
1750064025138114300,3.4721142578125,0.6921103000640869,0.14966198801994324,-0.0012217304902151227
1750064025154105300,3.488105224609375,0.4043927788734436,-1.0396926403045654,-0.28649580478668213
1750064025170035700,3.50403564453125,0.384845107793808,-1.4508049488067627,-0.35674530267715454
1750064025185996300,3.519996337890625,0.5418374538421631,-1.7269160747528076,-0.44226643443107605
1750064025201987600,3.535987548828125,0.5864306092262268,-2.172236919403076,-0.3597996234893799
1750064025218009300,3.55200927734375,0.6243042945861816,-2.8680124282836914,-0.12828169763088226
1750064025234000400,3.56800048828125,0.8558222055435181,-3.319441795349121,0.022602014243602753
1750064025249961200,3.583961181640625,1.2131783962249756,-3.568063974380493,0.08246681094169617
1750064025265921800,3.599921875,1.7849482297897339,-3.6969563961029053,0.15515977144241333
1750064025281882600,3.615882568359375,2.2479841709136963,-3.6859610080718994,0.11972958594560623
1750064025297934800,3.631934814453125,2.624277114868164,-3.8179078102111816,0.10506882518529892
1750064025313895400,3.6478955078125,3.089756488800049,-4.467257499694824,0.26572638750076294
1750064025329825500,3.663825439453125,3.5582900047302246,-5.413487911224365,0.251676470041275
1750064025345786400,3.679786376953125,3.757432222366333,-6.050009250640869,-0.16493362188339233
1750064025361747000,3.695746826171875,4.147775173187256,-5.675549030303955,-0.7061602473258972
1750064025377738200,3.71173828125,4.437935829162598,-4.506963729858398,-1.3713924884796143
1750064025393729500,3.7277294921875,4.514294147491455,-3.4776558876037598,-1.9260581731796265
1750064025409690000,3.743690185546875,4.580878257751465,-3.5827245712280273,-1.778228759765625
1750064025425681400,3.759681396484375,4.912578105926514,-4.2644500732421875,-1.2021827697753906
1750064025441642000,3.77564208984375,5.189910888671875,-4.9620585441589355,-1.0958921909332275
1750064025465567700,3.799567626953125,5.51000452041626,-5.511226177215576,-1.3231340646743774
1750064025481559000,3.81555908203125,5.32674503326416,-5.53810453414917,-1.0610729455947876
1750064025497580800,3.831580810546875,4.9596147537231445,-5.318192958831787,-0.22907446324825287
1750064025513541400,3.847541259765625,4.618141174316406,-4.758640289306641,0.5338962078094482
1750064025529502200,3.863502197265625,4.282776355743408,-3.6829066276550293,1.0806206464767456
1750064025545462800,3.879462890625,4.212526798248291,-2.528982162475586,1.0958921909332275
1750064025569449700,3.90344970703125,4.107458114624023,-0.6298020482063293,0.3952298164367676
1750064025585440800,3.919440673828125,3.6969563961029053,0.523511528968811,-0.2528982162475586
1750064025601401600,3.935401611328125,3.1844406127929688,1.4086552858352661,-0.749531626701355
1750064025617453800,3.951453857421875,2.630385637283325,2.1087067127227783,-1.037249207496643
1750064025633384000,3.967384033203125,2.1148154735565186,2.5253169536590576,-0.988990843296051
1750064025649413400,3.983413330078125,1.6920967102050781,2.4526238441467285,-0.6145304441452026
1750064025665374000,3.9993740234375,1.4343116283416748,1.6481144428253174,0.08552113175392151
1750064025689330400,4.023330322265625,1.1068878173828125,0.6524040699005127,0.6792821288108826
1750064025713347600,4.04734765625,0.7360926270484924,0.1160643994808197,0.7220427393913269
1750064025737273300,4.0712734375,0.6096435189247131,0.02687807008624077,0.7922922372817993
1750064025753264600,4.0872646484375,0.6224716901779175,0.07880161702632904,0.9969320893287659
1750064025769164300,4.103164306640625,0.6261368989944458,0.29626965522766113,1.3151928186416626
1750064025785155600,4.119155517578125,0.598647952079773,0.5070181488990784,1.5680910348892212
1750064025801085700,4.135085693359375,0.5601634383201599,0.7819074988365173,1.777006983757019
1750064025817077000,4.151076904296875,0.5119050741195679,0.9388998746871948,1.9083430767059326
1750064025833068000,4.167068115234375,0.5619960427284241,0.7819074988365173,2.004248857498169
1750064025848998400,4.182998291015625,0.6872233748435974,0.40072759985923767,2.054950714111328
1750064025864959000,4.198958984375,0.759305477142334,0.04092797264456749,1.9993619918823242
1750064025880950300,4.2149501953125,0.7837401032447815,-0.2669481039047241,1.8558086156845093
1750064025897033000,4.231032958984375,0.8032878041267395,-0.3781255781650543,1.8661932945251465
1750064025913054700,4.2470546875,0.8008443117141724,-0.37079519033432007,1.8887953758239746
1750064025929015300,4.263015380859375,0.8252789378166199,-0.4056145250797272,1.8759671449661255
1750064025952910600,4.28691064453125,0.6444628238677979,-0.6328563690185547,2.026240110397339
1750064025976897500,4.3108974609375,-0.018936822190880775,-1.0800096988677979,2.0335702896118164
1750064025992766700,4.3267666015625,-0.43737950921058655,-1.1380419731140137,1.8503108024597168
1750064026008727300,4.342727294921875,-1.0201449394226074,-1.094059705734253,1.5338826179504395
1750064026024688000,4.358688232421875,-1.7311921119689941,-1.3396275043487549,1.4355332851409912
1750064026040618200,4.3746181640625,-2.534479856491089,-1.6560556888580322,1.0610729455947876
1750064026056609300,4.390609375,-3.1337387561798096,-1.9932533502578735,0.47280970215797424
1750064026072600600,4.4066005859375,-3.375641345977783,-2.076941728591919,-0.025045474991202354
1750064026088530700,4.42253076171875,-3.634648323059082,-2.3817636966705322,-0.2376265823841095
1750064026104522000,4.43852197265625,-3.8240163326263428,-3.0219504833221436,-0.11178833991289139
1750064026120513300,4.45451318359375,-4.001167297363281,-3.3341023921966553,-0.30054569244384766
1750064026136504300,4.47050439453125,-4.212526798248291,-3.2259793281555176,-0.35674530267715454
1750064026160460800,4.494460693359375,-3.698178291320801,-2.9639182090759277,-0.23396138846874237
1750064026176482600,4.510482666015625,-2.94742488861084,-2.8606820106506348,-0.016493361443281174
1750064026192473600,4.5264736328125,-2.7763824462890625,-2.5558602809906006,-0.013439035043120384
1750064026216399400,4.5503994140625,-2.565023183822632,-2.8606820106506348,0.12767083942890167
1750064026232329700,4.566329833984375,-2.007303237915039,-2.313957452774048,0.4043927788734436
1750064026272277200,4.60627734375,-1.797776460647583,-2.182621479034424,0.09224065393209457
1750064026288237800,4.62223779296875,-1.5595389604568481,-1.3494013547897339,-0.252287358045578
1750064026304198400,4.638198486328125,-1.2137892246246338,-0.304210901260376,-0.42638394236564636
1750064026320159200,4.6541591796875,-1.1398745775222778,0.5210680365562439,-0.6279694437980652
1750064026336150500,4.670150634765625,-0.9065240025520325,0.9077457785606384,-0.3933972120285034
1750064026352080600,4.68608056640625,-0.23579397797584534,0.6860016584396362,-0.21624629199504852
1750064026368010800,4.7020107421875,-0.10690141469240189,0.36529740691185,-0.2834414839744568
1750064026384002000,4.718001953125,-0.2871066629886627,-0.44104471802711487,-0.5442809462547302
1750064026399901700,4.733901611328125,-0.6615670323371887,-0.3384193480014801,-0.12828169763088226
1750064026415923500,4.74992333984375,-0.7513642311096191,0.1111774742603302,0.5736024379730225
1750064026431914500,4.76591455078125,0.24862214922904968,-0.01160643994808197,1.451415777206421
1750064026447844900,4.781844970703125,1.112385630607605,-0.34513887763023376,1.8710802793502808
1750064026463805400,4.797805419921875,1.538158655166626,-0.07269296050071716,1.842369556427002
1750064026479766000,4.81376611328125,1.778228759765625,0.45631635189056396,1.5809192657470703
1750064026495787800,4.829787841796875,1.570534586906433,0.7757988572120667,0.9523389339447021
1750064026511718100,4.84571826171875,1.160033106803894,1.2034045457839966,0.41722095012664795
1750064026527678700,4.8616787109375,1.0170906782150269,1.7250834703445435,0.16554448008537292
1750064026543608800,4.87760888671875,1.1612548828125,2.0360138416290283,0.05864306539297104
1750064026559600000,4.89360009765625,0.7275404930114746,1.2162326574325562,0.10506882518529892
1750064026583556400,4.917556396484375,1.3866641521453857,-0.46792277693748474,-0.01771509274840355
1750064026599547600,4.933547607421875,1.7171422243118286,0.1111774742603302,-0.2015855312347412
1750064026615569400,4.9495693359375,2.4104743003845215,-0.24556782841682434,-0.6310238242149353
1750064026639525600,4.973525634765625,3.9345829486846924,0.4129449129104614,-0.2168571650981903
1750064026655547400,4.98954736328125,4.221689701080322,0.24373523890972137,0.543059229850769
1750064026671508000,5.005508056640625,3.629150390625,-0.1417207419872284,0.988379955291748
1750064026695495000,5.029494873046875,2.6395487785339355,0.26022860407829285,0.6145304441452026
1750064026711486200,5.045486328125,1.7085901498794556,0.49846604466438293,0.7776314616203308
1750064026727446800,5.06144677734375,0.5106833577156067,0.4453207552433014,1.1484266519546509
1750064026743438000,5.07743798828125,0.17043140530586243,0.44837507605552673,0.9059131741523743
1750064026767394300,5.101394287109375,0.242513507604599,0.8118399381637573,0.37751471996307373
1750064026783355100,5.117355224609375,-0.5051855444908142,0.1411098688840866,0.25473082065582275
1750064026799315700,5.133315673828125,-1.3946053981781006,-0.33536502718925476,0.32986724376678467
1750064026815337500,5.14933740234375,-2.1123719215393066,-0.3689626157283783,0.1569923609495163
1750064026831267600,5.165267578125,-2.6083946228027344,0.42760565876960754,-0.1319468915462494
1750064026847259000,5.1812587890625,-2.877786159515381,1.0323622226715088,0.17287486791610718
1750064026863219500,5.197219482421875,-3.0048460960388184,0.7672467231750488,0.1661553531885147
1750064026879180300,5.21318017578125,-2.7904324531555176,-0.006719517521560192,-0.23335053026676178
1750064026927154000,5.26115380859375,-1.0311405658721924,0.455705463886261,-1.3365731239318848
1750064026943175700,5.27717578125,-1.3457361459732056,0.34697145223617554,-1.4611896276474
1750064026959166700,5.293166748046875,-2.383596181869507,-0.1270599663257599,-0.3225368559360504
1750064026975158000,5.309157958984375,-2.9859092235565186,-0.5442809462547302,0.14782938361167908
1750064026991118600,5.32511865234375,-2.559525489807129,-1.6114624738693237,0.3995058834552765
1750064027007110000,5.34110986328125,-1.166752576828003,-0.9425650835037231,0.3799581825733185
1750064027023070500,5.357070556640625,-0.35674530267715454,-0.8735373020172119,-0.6236934065818787
1750064027039061800,5.373061767578125,-0.2675589919090271,-0.3543018400669098,-0.740368664264679
1750064027055083500,5.38908349609375,-0.5259549617767334,-0.32986724376678467,-0.8399397134780884
1750064027071044000,5.405044189453125,-1.1239920854568481,-0.3481931984424591,-0.9724974632263184
1750064027087005000,5.4210048828125,-0.6860016584396362,-0.9578366875648499,-0.9358455538749695
1750064027102965500,5.436965576171875,-0.30054569244384766,-1.5558737516403198,-0.7159340381622314
1750064027118926300,5.45292626953125,-0.3891211748123169,-1.6462818384170532,-0.39584067463874817
1750064027134978600,5.468978515625,-0.940121591091156,-1.750128984451294,-0.3597996234893799
1750064027150908700,5.48490869140625,-0.807563841342926,-1.4257594347000122,-0.4648684561252594
1750064027166869500,5.500869384765625,-0.7550294399261475,-1.1343767642974854,-0.37629300355911255
1750064027182860500,5.516860595703125,-0.9645562171936035,-0.6420193910598755,-0.11911872029304504
1750064027198821400,5.5328212890625,-0.7965682744979858,-0.7538077235221863,0.2321287989616394
1750064027214843100,5.548843017578125,-0.16737708449363708,-0.6633996367454529,0.7116580009460449
1750064027230773200,5.564773193359375,0.9993755221366882,-0.5540547966957092,0.8216137290000916
1750064027246733800,5.58073388671875,2.0170769691467285,-0.24923302233219147,0.5473352670669556
1750064027262694700,5.596694580078125,3.116023540496826,0.004886921960860491,0.4098905920982361
1750064027278624800,5.612624755859375,4.359745025634766,-0.35613444447517395,0.5601634383201599
1750064027294646500,5.628646484375,5.624847412109375,-0.9242390990257263,0.6609562039375305
1750064027310576600,5.64457666015625,5.112331390380859,-0.35735616087913513,0.46792277693748474
1750064027326537500,5.660537353515625,4.776355266571045,0.0555887371301651,0.5229006409645081
1750064027342528500,5.676528564453125,4.094629764556885,0.44776421785354614,0.22418753802776337
1750064027358519800,5.692519775390625,4.197865962982178,0.5772676467895508,-0.47708576917648315
1750064027374541600,5.70854150390625,4.26017427444458,0.7849618196487427,-1.1612548828125
1750064027390502100,5.724502197265625,3.2925636768341064,1.9798142910003662,-0.3341432809829712
1750064027406432500,5.7404326171875,2.6786441802978516,3.1697797775268555,0.6065891981124878
1750064027422393000,5.75639306640625,1.7641788721084595,3.5308010578155518,0.5571091175079346
1750064027438384400,5.77238427734375,2.021353006362915,3.304780960083008,0.6743952035903931
1750064027454406100,5.78840625,2.339003086090088,2.517986536026001,0.45265114307403564
1750064027470397200,5.804397216796875,2.0512855052948,1.521665334701538,0.3378084897994995
1750064027486358000,5.82035791015625,1.6505578756332397,1.0482447147369385,-0.0354301854968071
1750064027502318600,5.836318603515625,1.2797627449035645,0.33597588539123535,-0.7104362845420837
1750064027518310000,5.852309814453125,0.941343367099762,0.033597588539123535,-1.378722906112671
1750064027534301200,5.86830126953125,0.911410927772522,0.4434881806373596,-1.8087719678878784
1750064027550261800,5.88426171875,0.5363397002220154,0.015882495790719986,-1.955379605293274
1750064027566222300,5.900222412109375,0.06719517707824707,-0.8698720932006836,-1.814269781112671
1750064027582152700,5.916152587890625,-0.37690386176109314,-1.6908750534057617,-1.7018705606460571
1750064027598174500,5.932174560546875,-0.5345070958137512,-2.029905319213867,-1.6829338073730469
1750064027614226700,5.948226806640625,-0.4404338300228119,-2.0109684467315674,-1.7470746040344238
1750064027630156800,5.96415673828125,-0.048258353024721146,-1.9895881414413452,-1.7647897005081177
1750064027654143500,5.9881435546875,0.8820894360542297,-2.758056640625,-1.4972307682037354
1750064027670073900,6.004073974609375,1.6865988969802856,-3.0921998023986816,-1.2907582521438599
1750064027686034400,6.020034423828125,2.758056640625,-4.034153938293457,-0.8735373020172119
1750064027702025700,6.036025634765625,3.6945130825042725,-5.097059726715088,-0.03848451003432274
1750064027717986300,6.051986328125,4.25406551361084,-5.254662990570068,1.3426817655563354
1750064027734008000,6.068008056640625,3.975511074066162,-5.0292534828186035,3.132516860961914
1750064027749999400,6.083999267578125,2.899777412414551,-4.342030048370361,4.242459297180176
1750064027765929500,6.099929443359375,0.7269296646118164,-2.4972171783447266,4.033543109893799
1750064027781951200,6.115951171875,-0.43188172578811646,-0.5662720799446106,2.333505153656006
1750064027797911800,6.131911865234375,-0.39156460762023926,-0.15027284622192383,0.3500257730484009
1750064027813933600,6.14793359375,0.13561208546161652,-1.1942415237426758,-0.8356636762619019
1750064027829924900,6.1639248046875,0.22540926933288574,-1.957212209701538,-1.3445143699645996
1750064027845885400,6.179885498046875,-0.010995574295520782,-1.7153096199035645,-1.3658946752548218
1750064027861846300,6.19584619140625,-0.5589417219161987,-0.2565633952617645,-0.8429940342903137
1750064027877868000,6.211867919921875,-0.9260717034339905,1.2327260971069336,0.027488935738801956
1750064027893859000,6.227859130859375,-0.7073819637298584,1.8002198934555054,0.2718350291252136
1750064027909850400,6.243850341796875,-0.3292563557624817,1.785559058189392,0.03237585723400116
1750064027925811000,6.25981103515625,0.05742133408784866,1.6756033897399902,-0.20586158335208893
1750064027941771800,6.275771728515625,0.21563543379306793,1.3768903017044067,-0.1722639948129654
1750064027957732400,6.291732421875,0.18631389737129211,1.0201449394226074,-0.07330382615327835
1750064027973784600,6.30778466796875,0.304210901260376,0.8087855577468872,-0.07696902006864548
1750064027989715000,6.32371484375,0.6194173693656921,0.8674286603927612,-0.030543262138962746
1750064028005675500,6.339675537109375,1.0445796251296997,1.06657075881958,-0.08002334833145142
1750064028021666800,6.355666748046875,1.4013248682022095,1.4043792486190796,-0.13561208546161652
1750064028037627400,6.37162744140625,1.4233160018920898,1.4440854787826538,-0.0403171069920063
1750064028053649200,6.387649169921875,1.320690631866455,1.3646728992462158,0.251676470041275
1750064028069640400,6.403640380859375,1.0891727209091187,1.0384708642959595,0.323147714138031
1750064028085601000,6.41960107421875,0.9456194043159485,0.7825183868408203,0.2070833146572113
1750064028101561900,6.435561767578125,0.9279043078422546,0.6963863968849182,0.04886921867728233
1750064028117583600,6.45158349609375,0.827111542224884,0.808174729347229,-0.05742133408784866
1750064028133574700,6.46757470703125,0.7037167549133301,1.0684033632278442,-0.08429940044879913
1750064028149535500,6.483535400390625,0.7385360598564148,1.076344609260559,-0.04642575979232788
1750064028165496000,6.49949609375,1.016479730606079,1.0739010572433472,0.01160643994808197
1750064028181487400,6.5154873046875,1.2669345140457153,0.998153805732727,0.030543262138962746
1750064028197448000,6.531447998046875,1.5644259452819824,1.1343767642974854,0.10201449692249298
1750064028213439200,6.547439208984375,1.7660114765167236,1.3151928186416626,0.1661553531885147
1750064028229430500,6.563430419921875,1.8399261236190796,1.5125023126602173,0.10445795953273773
1750064028245391000,6.57939111328125,2.0134117603302,1.8906279802322388,0.16859880089759827
1750064028261352000,6.59535205078125,2.93154239654541,2.0677788257598877,0.7605272531509399
1750064028277312500,6.6113125,2.8093693256378174,1.803274154663086,1.2724323272705078
1750064028293273300,6.6272734375,2.6511552333831787,1.7482963800430298,1.5143349170684814
1750064028309142300,6.643142333984375,2.5998425483703613,1.7886134386062622,1.5919147729873657
1750064028325164000,6.6591640625,2.535090684890747,1.6059647798538208,1.6920967102050781
1750064028341063700,6.675063720703125,2.481945514678955,1.3713924884796143,1.7482963800430298
1750064028357024500,6.6910244140625,2.308459758758545,1.0885618925094604,1.6548339128494263
1750064028373046300,6.70704638671875,2.1154263019561768,0.5387831330299377,1.519832730293274
1750064028388976400,6.722976318359375,2.065335512161255,-0.3323107063770294,0.8649851679801941
1750064028404937000,6.73893701171875,1.1691961288452148,-1.4624114036560059,-0.8319984674453735
1750064028420958700,6.754958740234375,-0.9865473508834839,-1.056796908378601,-2.788599729537964
1750064028436950000,6.770949951171875,-2.439795732498169,0.5992587804794312,-3.5576791763305664
1750064028452971800,6.7869716796875,-1.463022232055664,1.2596040964126587,-2.4489588737487793
1750064028468932400,6.802932373046875,-0.6511823534965515,2.006692409515381,-0.6401867866516113
1750064028484923600,6.818923583984375,0.43615779280662537,5.416542053222656,3.1972687244415283
1750064028500884200,6.83488427734375,1.0280861854553223,6.004805564880371,4.499633312225342
1750064028516845000,6.850844970703125,1.2211196422576904,5.6767706871032715,4.530787467956543
1750064028532866800,6.86686669921875,1.1630873680114746,4.977941036224365,4.156938076019287
1750064028548857900,6.88285791015625,0.7079927921295166,4.31087589263916,3.712838888168335
1750064028564788200,6.898788330078125,-0.2675589919090271,3.5851681232452393,3.1673362255096436
1750064028580809700,6.914809814453125,-0.9242390990257263,2.9181032180786133,2.5894577503204346
1750064028596801000,6.930801025390625,-0.9963212013244629,2.2516493797302246,2.12703275680542
1750064028612822800,6.94682275390625,-0.6243042945861816,0.9144652485847473,1.7599027156829834
1750064028628814000,6.96281396484375,-0.15821409225463867,-0.5894849896430969,1.5430456399917603
1750064028644774700,6.978774658203125,0.2785545587539673,-1.7812830209732056,1.017701506614685
1750064028660735500,6.994735595703125,0.27061331272125244,-1.822821855545044,0.16432274878025055
1750064028676696000,7.010696044921875,0.13377949595451355,-1.3457361459732056,-0.6298020482063293
1750064028692717800,7.0267177734375,0.02382374368607998,-1.1282681226730347,-1.197295904159546
1750064028708709000,7.042709228515625,0.02015855349600315,-1.2046263217926025,-1.4624114036560059
1750064028724639200,7.05863916015625,0.04642575979232788,-1.3005321025848389,-1.720807433128357
1750064028740630500,7.074630615234375,0.036651913076639175,-1.3842206001281738,-1.930334210395813
1750064028756621600,7.09062158203125,0.04092797264456749,-1.4648548364639282,-2.0476202964782715
1750064028772643300,7.106643310546875,0.08735372871160507,-1.5540411472320557,-2.0916025638580322
1750064028788604200,7.122604248046875,0.11484266817569733,-1.6273449659347534,-2.040900707244873
1750064028804534300,7.1385341796875,0.12339477986097336,-1.6853772401809692,-1.8942930698394775
1750064028820525300,7.154525390625,0.12400564551353455,-1.6878206729888916,-1.6725490093231201
1750064028836516600,7.1705166015625,0.12767083942890167,-1.6145168542861938,-1.4618005752563477
1750064028852538400,7.186538330078125,0.13072516024112701,-1.4043792486190796,-1.2040153741836548
1750064028868529700,7.20252978515625,0.12034045159816742,-1.1618657112121582,-0.9938777685165405
1750064028884490200,7.218490234375,0.11301007121801376,-0.7428121566772461,-0.7476990818977356
1750064028900451000,7.234451171875,0.1160643994808197,-0.32070425152778625,-0.5601634383201599
1750064028916472600,7.25047265625,0.08918632566928864,-0.04337143152952194,-0.44837507605552673
1750064028932463900,7.2664638671875,0.00366519158706069,0.2321287989616394,-0.3286454975605011
1750064028948455200,7.282455078125,-0.04092797264456749,0.4086688458919525,-0.23457226157188416
1750064028964446200,7.2984462890625,-0.05253441259264946,0.5485569834709167,-0.1258382350206375
1750064028980437500,7.3144375,-0.09040805697441101,0.6475171446800232,-0.014049900695681572
1750064028996398300,7.3303984375,-0.2125810980796814,0.7641924023628235,0.07391469180583954
1750064029012419800,7.346419921875,-0.34513887763023376,0.921795666217804,0.18081611394882202
1750064029028411100,7.3624111328125,-0.3023782968521118,0.9822713136672974,0.26939156651496887
1750064029044372000,7.3783720703125,-0.1667662113904953,1.0598511695861816,0.35063666105270386
1750064029060332500,7.39433251953125,-0.20036379992961884,1.0225883722305298,0.4795292317867279
1750064029076354300,7.410354248046875,-0.16554448008537292,0.836885392665863,0.6633996367454529
1750064029092376000,7.4263759765625,0.0012217304902151227,0.46181413531303406,0.959669291973114
1750064029108306200,7.44230615234375,0.13744467496871948,0.02382374368607998,1.2027937173843384
1750064029124297500,7.45829736328125,0.21441370248794556,-0.23884831368923187,1.2877039909362793
1750064029140288500,7.47428857421875,0.2742784917354584,-0.3536909818649292,1.244943380355835
1750064029156249300,7.490249267578125,0.2968805134296417,-0.29504790902137756,1.1380419731140137
1750064029172271000,7.50627099609375,0.30970868468284607,-0.16432274878025055,0.9669997096061707
1750064029188262100,7.52226220703125,0.33536502718925476,-0.0354301854968071,0.8142833709716797
1750064029204223000,7.538222900390625,0.37201693654060364,0.08429940044879913,0.7654141783714294
1750064029220183600,7.55418359375,0.3988949954509735,0.3066543638706207,0.8124507665634155
1750064029236144400,7.570144287109375,0.3695734739303589,0.6505714654922485,0.9004153609275818
1750064029252166100,7.586166259765625,0.3170390725135803,1.06351637840271,0.9358455538749695
1750064029268096300,7.60209619140625,0.27122417092323303,1.2712105512619019,0.817337691783905
1750064029284026400,7.6180263671875,0.22846360504627228,1.2101240158081055,0.6218608021736145
1750064029300017700,7.634017578125,0.2223549485206604,0.9364564418792725,0.3597996234893799
1750064029316008700,7.6500087890625,0.2382374405860901,0.5668829679489136,0.14355333149433136
1750064029332030500,7.666030517578125,0.2528982162475586,0.0403171069920063,-0.09285151958465576
1750064029348021800,7.682021728515625,0.2223549485206604,-0.5002986192703247,-0.29138273000717163
1750064029363982300,7.697982421875,0.19853121042251587,-0.9187413454055786,-0.4386012554168701
1750064029379943200,7.713943115234375,0.16371189057826996,-1.2687671184539795,-0.5729916095733643
1750064029395934500,7.7299345703125,0.10201449692249298,-1.431868076324463,-0.6609562039375305
1750064029411956000,7.7459560546875,-0.012828170321881771,-1.4660766124725342,-0.7422012686729431
1750064029427886300,7.76188623046875,-0.12400564551353455,-1.3713924884796143,-0.7904596328735352
1750064029443847000,7.777846923828125,-0.22663100063800812,-1.2235630750656128,-0.807563841342926
1750064029459807700,7.793807861328125,-0.33658674359321594,-1.007927656173706,-0.8069530129432678
1750064029475798800,7.809798828125,-0.4050036668777466,-0.8258898258209229,-0.7996225953102112
1750064029491820500,7.825820556640625,-0.4691445231437683,-0.6646214127540588,-0.7965682744979858
1750064029523742000,7.857741943359375,-0.5351179838180542,-0.48319441080093384,-0.7684684991836548
1750064029539702800,7.873702880859375,-0.5418374538421631,-0.42699480056762695,-0.7189884185791016
1750064029555663400,7.889663330078125,-0.5326744914054871,-0.39156460762023926,-0.6542366743087769
1750064029571715600,7.905715576171875,-0.5112941861152649,-0.35124751925468445,-0.5626068711280823
1750064029587645700,7.921645751953125,-0.5021312236785889,-0.32009339332580566,-0.47708576917648315
1750064029603576000,7.937576171875,-0.484416127204895,-0.2834414839744568,-0.42638394236564636
1750064029619536600,7.95353662109375,-0.42577308416366577,-0.24434609711170197,-0.39706242084503174
1750064029635497500,7.96949755859375,-0.34636059403419495,-0.20036379992961884,-0.38179078698158264
1750064029651488500,7.985488525390625,-0.24434609711170197,-0.1368338167667389,-0.3536909818649292
1750064029667510300,8.00151025390625,-0.1160643994808197,-0.10873401165008545,-0.3023782968521118
1750064029683440400,8.0174404296875,-0.012828170321881771,-0.1062905490398407,-0.23151792585849762
1750064029699431700,8.033431640625,0.09346238523721695,-0.1270599663257599,-0.12217304855585098
1750064029715453400,8.049453369140625,0.1973094791173935,-0.13744467496871948,-0.018325956538319588
1750064029731475200,8.06547509765625,0.3170390725135803,-0.12461651116609573,0.10445795953273773
1750064029747405300,8.0814052734375,0.4147774875164032,-0.0959058403968811,0.20402899384498596
1750064029763366000,8.097365966796875,0.4893030524253845,-0.060475658625364304,0.27550023794174194
1750064029779326700,8.11332666015625,0.5613851547241211,-0.012828170321881771,0.35735616087913513
1750064029795318000,8.129318115234375,0.6145304441452026,0.04398229718208313,0.43615779280662537
1750064029811339500,8.145339599609375,0.6298020482063293,0.1661553531885147,0.5674937963485718
1750064029827330800,8.161330810546875,0.5839871764183044,0.3585779070854187,0.7299839854240417
1750064029843322000,8.177322021484375,0.5167919993400574,0.5528330206871033,0.8576548099517822
1750064029859282700,8.19328271484375,0.43249258399009705,0.7867944240570068,0.9553932547569275
1750064029875243500,8.209243408203125,0.3677408695220947,0.9926560521125793,1.0054842233657837
1750064029891265300,8.225265380859375,0.2834414839744568,1.2583824396133423,1.0421360731124878
1750064029907195400,8.2411953125,0.19425514340400696,1.5161675214767456,1.0592403411865234
1750064029923156000,8.257156005859375,0.15454891324043274,1.6939293146133423,1.0531316995620728
1750064029955138600,8.289138671875,0.22663100063800812,1.8112154006958008,0.9896016716957092
1750064029971160000,8.30516015625,0.28527405858039856,1.7043139934539795,0.9321803450584412
1750064029987121000,8.321120849609375,0.33292156457901,1.4850133657455444,0.8704829812049866
1750064030003081500,8.33708154296875,0.3646865487098694,1.235169529914856,0.808174729347229
1750064030019011800,8.35301171875,0.3903428912162781,0.8943067193031311,0.7079927921295166
1750064030035033600,8.36903369140625,0.3988949954509735,0.5644394755363464,0.5736024379730225
1750064030051055000,8.38505517578125,0.38606682419776917,0.15943582355976105,0.3744603991508484
1750064030066985500,8.4009853515625,0.32131510972976685,-0.24984388053417206,0.14966198801994324
1750064030082946000,8.416946044921875,0.19914206862449646,-0.5717698931694031,-0.025656340643763542
1750064030098937300,8.432937255859375,0.003054326167330146,-0.8307767510414124,-0.17898350954055786
1750064030114898000,8.44889794921875,-0.1472185254096985,-0.9199630618095398,-0.27122417092323303
1750064030130919700,8.464919677734375,-0.29016098380088806,-0.8918632864952087,-0.3695734739303589
1750064030146911000,8.480910888671875,-0.41233405470848083,-0.7611380815505981,-0.4709770977497101
1750064030162871600,8.49687158203125,-0.5021312236785889,-0.6206390857696533,-0.5613851547241211
1750064030178801700,8.5128017578125,-0.5516113042831421,-0.484416127204895,-0.6450737118721008
1750064030194823400,8.528823486328125,-0.5406157374382019,-0.4306600093841553,-0.6860016584396362
1750064030210845200,8.54484521484375,-0.5155702829360962,-0.45265114307403564,-0.6921103000640869
1750064030226775300,8.560775390625,-0.5106833577156067,-0.5320636034011841,-0.6676757335662842
1750064030242736000,8.576736083984375,-0.5027421116828918,-0.6151412725448608,-0.645684540271759
1750064030258727400,8.5927275390625,-0.46303585171699524,-0.6597344875335693,-0.6255260109901428
1750064030290709800,8.624709716796875,-0.3194825351238251,-0.578489363193512,-0.6157521605491638
1750064030306701000,8.640701171875,-0.23396138846874237,-0.503963828086853,-0.6053674817085266
1750064030322661600,8.65666162109375,-0.16065755486488342,-0.4489859640598297,-0.5723807215690613
1750064030338622500,8.67262255859375,-0.06658431142568588,-0.41111230850219727,-0.5119050741195679
1750064030354613500,8.688613525390625,0.007941247895359993,-0.3793473243713379,-0.43676865100860596
1750064030370635300,8.70463525390625,0.09040805697441101,-0.37201693654060364,-0.3738495409488678
1750064030386565400,8.7205654296875,0.18936823308467865,-0.38728857040405273,-0.2987131178379059
1750064030402495700,8.736495849609375,0.2620611786842346,-0.38117989897727966,-0.22907446324825287
1750064030418486800,8.75248681640625,0.3029891550540924,-0.3335324227809906,-0.13255776464939117
1750064030434447600,8.768447509765625,0.34086281061172485,-0.2577851414680481,-0.02321287989616394
1750064030450499800,8.784499755859375,0.36590829491615295,-0.15943582355976105,0.08491026610136032
1750064030466460400,8.80046044921875,0.36713001132011414,-0.02321287989616394,0.2272418737411499
1750064030482390500,8.816390625,0.3549126982688904,0.10445795953273773,0.3488040566444397
1750064030498321000,8.83232080078125,0.3243694305419922,0.2620611786842346,0.47830748558044434
1750064030514281500,8.848281494140625,0.2981022298336029,0.384845107793808,0.5626068711280823
1750064030530303200,8.86430322265625,0.2718350291252136,0.49357911944389343,0.6328563690185547
1750064030546264000,8.88026416015625,0.2541199326515198,0.5656611919403076,0.6841690540313721
1750064030562194200,8.896194091796875,0.251676470041275,0.5974262356758118,0.7116580009460449
1750064030578124300,8.912124267578125,0.25534167885780334,0.5900958180427551,0.7244861721992493
1750064030594084900,8.9280849609375,0.2565633952617645,0.5418374538421631,0.7141014933586121
1750064030610076200,8.944076171875,0.2480112910270691,0.44715335965156555,0.6762278079986572
1750064030626067500,8.9600673828125,0.23640485107898712,0.31520646810531616,0.6212499737739563
1750064030642058800,8.976058837890625,0.2217440903186798,0.17898350954055786,0.5613851547241211
1750064030658019300,8.992019287109375,0.192422553896904,-0.0012217304902151227,0.4807509481906891
1750064030673980000,9.00797998046875,0.15821409225463867,-0.17287486791610718,0.39767327904701233
1750064030690001700,9.024001708984375,0.09773843735456467,-0.39095374941825867,0.2889392673969269
1750064030705932000,9.03993212890625,0.00733038317412138,-0.5907067060470581,0.16371189057826996
1750064030721892600,9.055892578125,-0.08674286305904388,-0.7226535677909851,0.059864792972803116
1750064030737884000,9.0718837890625,-0.1875356286764145,-0.8045095205307007,-0.03237585723400116
1750064030753875000,9.087875,-0.2535090744495392,-0.8106181621551514,-0.09957103431224823
1750064030769896700,9.103896728515625,-0.3188716471195221,-0.7562511563301086,-0.1459967941045761
1750064030785888000,9.119887939453125,-0.35552358627319336,-0.6664539575576782,-0.2028072625398636
1750064030801848600,9.1358486328125,-0.3701843321323395,-0.5937610268592834,-0.26450464129447937
1750064030817809400,9.151809326171875,-0.3854559659957886,-0.5424483418464661,-0.35185837745666504
1750064030833770000,9.16777001953125,-0.37629300355911255,-0.5363397002220154,-0.43615779280662537
1750064030849791700,9.183791748046875,-0.3439171314239502,-0.5601634383201599,-0.4917465150356293
1750064030865752600,9.199752685546875,-0.31093040108680725,-0.6151412725448608,-0.5412266254425049
1750064030881713200,9.215713134765625,-0.2718350291252136,-0.6725626587867737,-0.5674937963485718
1750064030897643300,9.231643310546875,-0.20036379992961884,-0.7299839854240417,-0.5955936312675476
1750064030913604000,9.24760400390625,-0.12767083942890167,-0.7648032903671265,-0.6255260109901428
1750064030929625900,9.2636259765625,-0.0555887371301651,-0.7611380815505981,-0.6621779203414917
1750064030945556000,9.279555908203125,-0.00427605677396059,-0.7232644557952881,-0.694553792476654
1750064030961516500,9.2955166015625,0.025656340643763542,-0.6591235995292664,-0.7110471725463867
1750064030977507800,9.3115078125,0.06841690838336945,-0.5729916095733643,-0.7159340381622314
1750064030993468400,9.327468505859375,0.12950342893600464,-0.4612032473087311,-0.6872233748435974
1750064031009521000,9.34352099609375,0.182648703455925,-0.35063666105270386,-0.6340781450271606
1750064031025512000,9.359511962890625,0.2168571650981903,-0.22479841113090515,-0.5626068711280823
1750064031041472800,9.37547265625,0.24373523890972137,-0.1264491081237793,-0.4813618063926697
1750064031057494500,9.39149462890625,0.2767219543457031,0.0024434609804302454,-0.3549126982688904
1750064031073516000,9.40751611328125,0.3017674386501312,0.07147123664617538,-0.24068090319633484
1750064031089507300,9.42350732421875,0.303600013256073,0.10567969083786011,-0.15515977144241333
1750064031105468200,9.43946826171875,0.2926044464111328,0.0507018156349659,-0.10445795953273773
1750064031121459200,9.455459228515625,0.2687807083129883,-0.060475658625364304,-0.08185594528913498
1750064031137420000,9.471419921875,0.22296582162380219,-0.20952677726745605,-0.06475171446800232
1750064031153380600,9.487380615234375,0.17287486791610718,-0.3628539443016052,-0.04948008432984352
1750064031169372000,9.503371826171875,0.1270599663257599,-0.46792277693748474,-0.033597588539123535
1750064031185332500,9.51933251953125,0.08307767659425735,-0.5100724697113037,0.006719517521560192
1750064031201293300,9.535293212890625,0.04948008432984352,-0.48869219422340393,0.04703662544488907
1750064031217254000,9.55125390625,0.01466076634824276,-0.43249258399009705,0.09407325088977814
1750064031233214700,9.567214599609375,-0.009162978269159794,-0.3891211748123169,0.14905111491680145
1750064031249205800,9.583205810546875,-0.00366519158706069,-0.3805690407752991,0.20097467303276062
1750064031265197000,9.599197021484375,0.02382374368607998,-0.394618958234787,0.26633724570274353
1750064031281188400,9.615188232421875,0.051312681287527084,-0.413555771112442,0.32681289315223694
1750064031297149000,9.63114892578125,0.08002334833145142,-0.4306600093841553,0.3933972120285034
1750064031313109800,9.64710986328125,0.1007927656173706,-0.423329621553421,0.4599815309047699
1750064031329131300,9.66313134765625,0.10812314599752426,-0.38179078698158264,0.5088507533073425
1750064031345061600,9.6790615234375,0.10934487730264664,-0.27977627515792847,0.5613851547241211
1750064031361022200,9.695022216796875,0.10751228034496307,-0.07452555745840073,0.6426302194595337
1750064031376983000,9.710983154296875,0.0757472887635231,0.31642818450927734,0.7727445363998413
1750064031392943600,9.726943603515625,0.02871066704392433,0.8191702961921692,0.8949176073074341
1750064031408965400,9.74296533203125,-0.019547687843441963,1.2870930433273315,0.9456194043159485
1750064031424956700,9.758956787109375,-0.09040805697441101,1.7122552394866943,0.8955284357070923
1750064031440917200,9.774917236328125,-0.13439035415649414,1.920560359954834,0.7843509912490845
1750064031456847400,9.790847412109375,-0.1466076523065567,1.958433985710144,0.6426302194595337
1750064031472838700,9.806838623046875,-0.14966198801994324,1.7989981174468994,0.5314527750015259
1750064031488860400,9.8228603515625,-0.16798794269561768,1.5570955276489258,0.46731191873550415
1750064031504821000,9.838821044921875,-0.1612684279680252,1.1887437105178833,0.40744712948799133
1750064031520751400,9.85475146484375,-0.1508837193250656,0.8497135639190674,0.342695415019989
1750064031536742400,9.870742431640625,-0.14782938361167908,0.5076290369033813,0.2278527319431305
1750064031552733700,9.886733642578125,-0.1368338167667389,0.27061331272125244,0.07635815441608429
1750064031568725000,9.90272509765625,-0.1215621829032898,0.14049901068210602,-0.06536258012056351
1750064031584685600,9.918685546875,-0.09224065393209457,0.07452555745840073,-0.21502456068992615
1750064031600615700,9.93461572265625,-0.06902777403593063,0.0708603709936142,-0.30482175946235657
1750064031616576500,9.950576416015625,-0.036651913076639175,0.11484266817569733,-0.3640756905078888
1750064031632537000,9.966537109375,0.009162978269159794,0.20891591906547546,-0.39584067463874817
1750064031648558800,9.982558837890625,0.056810468435287476,0.3237585723400116,-0.43799036741256714
1750064031672454100,10.0064541015625,0.1508837193250656,0.46364670991897583,-0.6047565937042236
1750064031688445400,10.022445556640625,0.1973094791173935,0.4917465150356293,-0.740368664264679
1750064031704406000,10.038406005859375,0.22296582162380219,0.4703662395477295,-0.8246681094169617
1750064031720397300,10.054397216796875,0.2431243658065796,0.4043927788734436,-0.8662069439888
1750064031736419000,10.070419189453125,0.24068090319633484,0.33047810196876526,-0.8533787727355957
1750064031752410000,10.08641015625,0.21380282938480377,0.2480112910270691,-0.8032878041267395
1750064031768401400,10.1024013671875,0.17348572611808777,0.2021963894367218,-0.7232644557952881
1750064031784392700,10.118392822265625,0.13439035415649414,0.22052235901355743,-0.636521577835083
1750064031800322800,10.13432275390625,0.09285151958465576,0.38240164518356323,-0.4960225820541382
1750064031816314000,10.150314208984375,0.06291911751031876,0.6670648455619812,-0.3396410644054413
1750064031832305200,10.16630517578125,-0.036651913076639175,1.1136072874069214,-0.15393804013729095
1750064031848327000,10.182326904296875,-0.1661553531885147,1.560760736465454,0.00366519158706069
1750064031864287700,10.198287841796875,-0.22113321721553802,1.8851301670074463,0.10995574295520782
1750064031880248300,10.214248291015625,-0.2632829248905182,2.1930062770843506,0.22540926933288574
1750064031896209000,10.230208984375,-0.31581732630729675,2.4214699268341064,0.35063666105270386
1750064031912169700,10.246169677734375,-0.34574973583221436,2.56563401222229,0.5015203952789307
1750064031928191500,10.26219140625,-0.3488040566444397,2.704911231994629,0.7684684991836548
1750064031944121600,10.27812158203125,-0.3188716471195221,2.880840539932251,1.0506882667541504
1750064031960113000,10.29411279296875,-0.24923302233219147,3.1447343826293945,1.4080443382263184
1750064031976073500,10.310073486328125,-0.18875735998153687,3.402519464492798,1.6725490093231201
1750064031992034300,10.326034423828125,-0.13011430203914642,3.5631768703460693,1.737911581993103
1750064032008056000,10.34205615234375,-0.021991148591041565,3.5503487586975098,1.6578882932662964
1750064032024077600,10.35807763671875,0.08918632566928864,3.413515090942383,1.6517796516418457
1750064032040008000,10.374008056640625,0.24984388053417206,3.0970869064331055,1.9315558671951294
1750064032056029700,10.39002978515625,0.33536502718925476,2.652376890182495,2.2204952239990234
1750064032072051200,10.40605126953125,0.3194825351238251,2.30051851272583,2.2382102012634277
1750064032088103400,10.422103515625,0.2742784917354584,2.214386463165283,2.0842721462249756
1750064032104033800,10.43803369140625,0.25106561183929443,2.467284679412842,1.9040669202804565
1750064032120024800,10.45402490234375,0.2590068578720093,3.0439414978027344,1.645671010017395
1750064032136046600,10.470046630859375,0.242513507604599,3.157562494277954,1.313360333442688
1750064032152038000,10.486037841796875,0.19486601650714874,2.7036895751953125,1.1166616678237915
1750064032175963600,10.509963623046875,0.05375614017248154,1.4654656648635864,0.8979719281196594
1750064032191924200,10.52592431640625,-0.05192354694008827,0.9242390990257263,0.7391469478607178
1750064032207946000,10.541946044921875,-0.10384709388017654,0.8546004891395569,0.5497786998748779
1750064032223937300,10.557937255859375,-0.1362229436635971,0.9706648588180542,0.33169981837272644
1750064032239897900,10.57389794921875,-0.18570303916931152,0.9468411207199097,0.1973094791173935
1750064032255828200,10.589828125,-0.21563543379306793,0.7611380815505981,0.12278391420841217
1750064032271850000,10.60585009765625,-0.24190263450145721,0.5222898125648499,0.045204028487205505
1750064032287902200,10.621902099609375,-0.27122417092323303,0.4196644127368927,-0.0024434609804302454
1750064032303832300,10.637832275390625,-0.2987131178379059,0.43188172578811646,-0.07941248267889023
1750064032319793000,10.65379296875,-0.2938261926174164,0.4862487316131592,-0.15393804013729095
1750064032335784200,10.6697841796875,-0.3078760802745819,0.5601634383201599,-0.15821409225463867
1750064032351745000,10.6857451171875,-0.33047810196876526,0.6786713004112244,-0.17959438264369965
1750064032367736000,10.701736083984375,-0.33292156457901,0.8008443117141724,-0.25473082065582275
1750064032383727400,10.717727294921875,-0.32559117674827576,0.9712757468223572,-0.36102136969566345
1750064032399688000,10.73368798828125,-0.27977627515792847,1.1429288387298584,-0.4447098970413208
1750064032415679200,10.74967919921875,-0.17898350954055786,1.2333369255065918,-0.47219884395599365
1750064032431639800,10.765639892578125,-0.04703662544488907,1.176526427268982,-0.4660901725292206
1750064032447631000,10.781631103515625,0.03420845419168472,0.988990843296051,-0.42088615894317627
1750064032463592000,10.797592041015625,0.10873401165008545,0.7134906053543091,-0.30970868468284607
1750064032479522000,10.81352197265625,0.17959438264369965,0.5167919993400574,-0.20036379992961884
1750064032495513000,10.82951318359375,0.21930062770843506,0.4440990388393402,-0.12889257073402405
1750064032511504400,10.84550439453125,0.2272418737411499,0.45692721009254456,-0.05192354694008827
1750064032527495700,10.86149560546875,0.22113321721553802,0.4954117238521576,0.01160643994808197
1750064032543456300,10.877456298828125,0.20097467303276062,0.5149593949317932,0.07147123664617538
1750064032559417000,10.8934169921875,0.1667662113904953,0.4801400899887085,0.12034045159816742
1750064032575377700,10.909377685546875,0.17592918872833252,0.4355469346046448,0.1508837193250656
1750064032591369000,10.925368896484375,0.20341812074184418,0.3842342495918274,0.13927727937698364
1750064032607390700,10.941390625,0.242513507604599,0.3023782968521118,0.1215621829032898
1750064032623320800,10.95732080078125,0.2919935882091522,0.1569923609495163,0.1264491081237793
1750064032639281400,10.973281494140625,0.3481931984424591,0.02871066704392433,0.1514945775270462
1750064032655242200,10.9892421875,0.40744712948799133,-0.0024434609804302454,0.1612684279680252
1750064032671264000,11.005263916015625,0.4801400899887085,0.03787364438176155,0.1319468915462494
1750064032687316200,11.021316162109375,0.5064072608947754,0.06536258012056351,0.10812314599752426
1750064032703307500,11.0373076171875,0.48869219422340393,0.06108652427792549,0.09407325088977814
1750064032719268000,11.05326806640625,0.44104471802711487,0.03420845419168472,0.06780604273080826
1750064032735228700,11.069228759765625,0.3793473243713379,0.06658431142568588,0.021991148591041565
1750064032751250400,11.08525048828125,0.30054569244384766,0.12522737681865692,-0.0757472887635231
1750064032767302700,11.101302734375,0.28955012559890747,0.17470745742321014,-0.20341812074184418
1750064032783233000,11.11723291015625,0.3445279896259308,0.07513642311096191,-0.38667771220207214
1750064032799193600,11.133193603515625,0.36651915311813354,-0.19486601650714874,-0.5473352670669556
1750064032815154400,11.149154541015625,0.35124751925468445,-0.47342056035995483,-0.675006091594696
1750064032831115000,11.165114990234375,0.3439171314239502,-0.6914994716644287,-0.8216137290000916
1750064032847136800,11.18113671875,0.2974913716316223,-0.7049384713172913,-0.9242390990257263
1750064032863128000,11.197128173828125,0.26022860407829285,-0.6481280326843262,-1.0103710889816284
1750064032879088600,11.213088623046875,0.22663100063800812,-0.6432411074638367,-1.086118459701538
1750064032895080000,11.229079833984375,0.21868975460529327,-0.7232644557952881,-1.1233811378479004
1750064032911071000,11.245071044921875,0.23945917189121246,-0.8674286603927612,-1.0958921909332275
1750064032927092700,11.2610927734375,0.2583959996700287,-0.9822713136672974,-1.0427470207214355
1750064032943084000,11.277083984375,0.25961771607398987,-1.0677924156188965,-0.9511171579360962
1750064032959044600,11.293044677734375,0.23029619455337524,-1.0500773191452026,-0.7996225953102112
1750064032975036000,11.309035888671875,0.17959438264369965,-0.9584475755691528,-0.646295428276062
1750064032991027200,11.325027099609375,0.10934487730264664,-0.827722430229187,-0.5009095072746277
1750064033007049000,11.341049072265625,0.04886921867728233,-0.6768386960029602,-0.37690386176109314
1750064033022979000,11.35697900390625,-0.010995574295520782,-0.5345070958137512,-0.2730567753314972
1750064033038939600,11.372939697265625,-0.08185594528913498,-0.3988949954509735,-0.1612684279680252
1750064033054931000,11.388930908203125,-0.14294247329235077,-0.32681289315223694,-0.06536258012056351
1750064033070922200,11.404922119140625,-0.20402899384498596,-0.25106561183929443,0.08552113175392151
1750064033086944000,11.420944091796875,-0.23884831368923187,-0.15943582355976105,0.26572638750076294
1750064033102874000,11.4368740234375,-0.252287358045578,-0.04764748737215996,0.42088615894317627
1750064033118834700,11.452834716796875,-0.24923302233219147,0.12339477986097336,0.598647952079773
1750064033134826000,11.468825927734375,-0.23640485107898712,0.2669481039047241,0.7324274182319641
1750064033150817300,11.4848173828125,-0.24129177629947662,0.38117989897727966,0.8393288254737854
1750064033166838800,11.5008388671875,-0.24495697021484375,0.42271876335144043,0.8869763612747192
1750064033182769200,11.51676904296875,-0.24007004499435425,0.4282165467739105,0.8875871896743774
1750064033198729700,11.532729736328125,-0.23457226157188416,0.4202753007411957,0.8429940342903137
1750064033214690600,11.548690673828125,-0.2431243658065796,0.39645153284072876,0.7751879692077637
1750064033230651100,11.564651123046875,-0.25045475363731384,0.3677408695220947,0.6420193910598755
1750064033246703400,11.580703369140625,-0.23579397797584534,0.38667771220207214,0.49235737323760986
1750064033262664200,11.596664306640625,-0.2015855312347412,0.35246923565864563,0.3677408695220947
1750064033278594300,11.61259423828125,-0.15882496535778046,0.19853121042251587,0.20525072515010834
1750064033294555000,11.628554931640625,-0.11056660860776901,0.025656340643763542,0.07452555745840073
1750064033310546200,11.644546142578125,-0.05864306539297104,-0.12461651116609573,-0.06291911751031876
1750064033326537500,11.660537353515625,-0.014049900695681572,-0.20463985204696655,-0.16554448008537292
1750064033342498000,11.676498046875,0.024434609338641167,-0.2278527319431305,-0.23579397797584534
1750064033358489300,11.6924892578125,0.06902777403593063,-0.22663100063800812,-0.3066543638706207
1750064033374480400,11.70848046875,0.1062905490398407,-0.2590068578720093,-0.3445279896259308
1750064033390471700,11.7244716796875,0.11484266817569733,-0.36590829491615295,-0.3597996234893799
1750064033406493400,11.740493408203125,0.08124507963657379,-0.4764748811721802,-0.34086281061172485
1750064033422423600,11.756423583984375,0.02871066704392433,-0.4758640229701996,-0.3066543638706207
1750064033438384400,11.77238427734375,-0.033597588539123535,-0.33047810196876526,-0.24007004499435425
1750064033454375400,11.78837548828125,-0.08124507963657379,-0.1612684279680252,-0.17592918872833252
1750064033470366700,11.80436669921875,-0.10934487730264664,-0.08796459436416626,-0.15271630883216858
1750064033486388500,11.820388427734375,-0.10018189996480942,-0.1417207419872284,-0.1612684279680252
1750064033502349000,11.83634912109375,-0.08246681094169617,-0.22540926933288574,-0.17287486791610718
1750064033518279400,11.852279541015625,-0.04153883829712868,-0.3396410644054413,-0.20097467303276062
1750064033534240000,11.868239990234375,0.0012217304902151227,-0.43799036741256714,-0.2278527319431305
1750064033550231300,11.884231201171875,0.030543262138962746,-0.5516113042831421,-0.23945917189121246
1750064033566253000,11.900253173828125,0.025656340643763542,-0.59803706407547,-0.19058994948863983
1750064033582213600,11.916213623046875,0.02382374368607998,-0.5564982295036316,-0.11972958594560623
1750064033598143700,11.932143798828125,0.04092797264456749,-0.4489859640598297,-0.04642575979232788
1750064033614165500,11.94816552734375,0.05253441259264946,-0.38117989897727966,-0.00427605677396059
1750064033630126300,11.964126220703125,0.07330382615327835,-0.36224308609962463,0.04398229718208313
1750064033646117400,11.980117431640625,0.11239920556545258,-0.38606682419776917,0.11362093687057495
1750064033662108700,11.996108642578125,0.15515977144241333,-0.3842342495918274,0.18387043476104736
1750064033678069200,12.0120693359375,0.21013765037059784,-0.3695734739303589,0.2736676335334778
1750064033694030000,12.028030029296875,0.2474004179239273,-0.3634648323059082,0.3488040566444397
1750064033709990700,12.04399072265625,0.2993239760398865,-0.35735616087913513,0.41599923372268677
1750064033726012400,12.060012451171875,0.31093040108680725,-0.3219259977340698,0.45814892649650574
1750064033742003700,12.076003662109375,0.3127630054950714,-0.2681698501110077,0.4905247986316681
1750064033757964300,12.09196435546875,0.2968805134296417,-0.1814269721508026,0.5314527750015259
1750064033773955600,12.10795556640625,0.26939156651496887,-0.12400564551353455,0.5473352670669556
1750064033789947000,12.12394677734375,0.2376265823841095,-0.11728613078594208,0.4996877610683441
1750064033805938000,12.13993798828125,0.20097467303276062,-0.22907446324825287,0.37690386176109314
1750064033821898800,12.155898681640625,0.17348572611808777,-0.3445279896259308,0.28649580478668213
1750064033837859300,12.171859375,0.12339477986097336,-0.375071257352829,0.22296582162380219
1750064033853850600,12.1878505859375,0.09346238523721695,-0.34147366881370544,0.15515977144241333
1750064033869842000,12.203842041015625,0.08491026610136032,-0.2736676335334778,0.03420845419168472
1750064033885894100,12.21989404296875,0.10384709388017654,-0.22357667982578278,-0.10201449692249298
1750064033901885200,12.23588525390625,0.1270599663257599,-0.27977627515792847,-0.23151792585849762
1750064033917815600,12.251815673828125,0.1368338167667389,-0.42577308416366577,-0.394008070230484
1750064033933806600,12.267806640625,0.1411098688840866,-0.5357288122177124,-0.53328537940979
1750064033949798000,12.2837978515625,0.13011430203914642,-0.6004805564880371,-0.6542366743087769
1750064033965819600,12.299819580078125,0.10567969083786011,-0.6395758986473083,-0.7049384713172913
1750064033981780200,12.3157802734375,0.08246681094169617,-0.6786713004112244,-0.7067710757255554
1750064033997710600,12.331710693359375,0.05803219974040985,-0.7397578358650208,-0.6976081132888794
1750064034013701600,12.34770166015625,0.029932396486401558,-0.7898487448692322,-0.6927211880683899
1750064034029693000,12.36369287109375,-0.0354301854968071,-0.8210029006004333,-0.6646214127540588
1750064034045745200,12.3797451171875,-0.10445795953273773,-0.8118399381637573,-0.5937610268592834
1750064034061705700,12.395705810546875,-0.1472185254096985,-0.7684684991836548,-0.5009095072746277
1750064034077697000,12.411697021484375,-0.18081611394882202,-0.7250970602035522,-0.3781255781650543
1750064034093688300,12.427688232421875,-0.2070833146572113,-0.7171558141708374,-0.2590068578720093
1750064034109649000,12.44364892578125,-0.21319197118282318,-0.7043276429176331,-0.15760323405265808
1750064034125701000,12.459701171875,-0.22296582162380219,-0.6530149579048157,-0.03420845419168472
1750064034141662000,12.475661865234375,-0.24923302233219147,-0.5870414972305298,0.06963863968849182
1750064034157653000,12.491653076171875,-0.2828305959701538,-0.4862487316131592,0.19608774781227112
1750064034173644300,12.507644287109375,-0.33475416898727417,-0.384845107793808,0.3084869384765625
1750064034189635600,12.523635498046875,-0.394618958234787,-0.2968805134296417,0.39156460762023926
1750064034205657300,12.5396572265625,-0.44593164324760437,-0.2168571650981903,0.4660901725292206
1750064034221618000,12.555617919921875,-0.4550946056842804,-0.17287486791610718,0.5143485069274902
1750064034237578800,12.571578857421875,-0.4343251883983612,-0.14538592100143433,0.5564982295036316
1750064034253569800,12.58756982421875,-0.3854559659957886,-0.1264491081237793,0.6035348773002625
1750064034269561000,12.60356103515625,-0.33719760179519653,-0.10201449692249298,0.6316346526145935
1750064034285582800,12.619582763671875,-0.2638937830924988,-0.02687807008624077,0.6157521605491638
1750064034301574000,12.635573974609375,-0.18875735998153687,0.06841690838336945,0.5650503635406494
1750064034317504300,12.651504150390625,-0.08185594528913498,0.039095375686883926,0.4893030524253845
1750064034333464800,12.66746484375,-0.0024434609804302454,-0.12278391420841217,0.413555771112442
1750064034349456100,12.6834560546875,0.03481931984424591,-0.15271630883216858,0.3182607889175415
1750064034365478000,12.699477783203125,0.054367005825042725,-0.033597588539123535,0.14355333149433136
1750064034381469000,12.715468994140625,0.06780604273080826,-0.05375614017248154,-0.03420845419168472
1750064034397429800,12.7314296875,0.09407325088977814,-0.19364428520202637,-0.20463985204696655
1750064034413359900,12.74735986328125,0.11667526513338089,-0.2736676335334778,-0.30054569244384766
1750064034429320700,12.76332080078125,0.14844025671482086,-0.2669481039047241,-0.32986724376678467
1750064034445342200,12.77934228515625,0.2064724564552307,-0.24434609711170197,-0.34513887763023376
1750064034461333500,12.79533349609375,0.23090706765651703,-0.2785545587539673,-0.36590829491615295
1750064034477355300,12.811355224609375,0.24007004499435425,-0.38240164518356323,-0.3988949954509735
1750064034493346600,12.8273466796875,0.26572638750076294,-0.494189977645874,-0.4001167416572571
1750064034509337600,12.843337646484375,0.2993239760398865,-0.6004805564880371,-0.375071257352829
1750064034525389800,12.859389892578125,0.3127630054950714,-0.7843509912490845,-0.3530801236629486
1750064034541350700,12.8753505859375,0.31459560990333557,-1.0629055500030518,-0.37629300355911255
1750064034557311200,12.891311279296875,0.313373863697052,-1.436144232749939,-0.37629300355911255
1750064034573302500,12.907302490234375,0.28466320037841797,-1.6438384056091309,-0.25961771607398987
1750064034589324300,12.92332421875,0.21380282938480377,-1.6688838005065918,-0.14966198801994324
1750064034605346000,12.939345947265625,0.1411098688840866,-1.5564846992492676,-0.025045474991202354
1750064034621306600,12.955306640625,0.06780604273080826,-1.4141530990600586,0.1160643994808197
1750064034637267500,12.971267333984375,-0.05314527451992035,-1.2834278345108032,0.17531833052635193
1750064034653258500,12.987258544921875,-0.15332718193531036,-1.0115928649902344,0.23029619455337524
1750064034669280300,13.0032802734375,-0.18875735998153687,-0.7122688889503479,0.2590068578720093
1750064034685302000,13.019302001953125,-0.1716531366109848,-0.394008070230484,0.11972958594560623
1750064034701232000,13.035232177734375,-0.11301007121801376,-0.19547687470912933,-0.11484266817569733
1750064034717193000,13.05119287109375,-0.07757988572120667,-0.17592918872833252,-0.24129177629947662
1750064034733184000,13.06718408203125,-0.04764748737215996,-0.38179078698158264,-0.2565633952617645
1750064034749144800,13.083144775390625,0.006108652334660292,-0.655458390712738,-0.21930062770843506
1750064034765197000,13.099197021484375,0.08796459436416626,-0.988379955291748,-0.1973094791173935
1750064034781157600,13.11515771484375,0.23396138846874237,-1.2486085891723633,-0.1966986060142517
1750064034797118500,13.131118408203125,0.33597588539123535,-1.4013248682022095,-0.2431243658065796
1750064034813109800,13.14710986328125,0.3536909818649292,-1.518610954284668,-0.35674530267715454
1750064034837127000,13.171126953125,0.3072652220726013,-1.644449234008789,-0.5601634383201599
1750064034853087700,13.187087646484375,0.2681698501110077,-1.712866187095642,-0.6725626587867737
1750064034869078800,13.203078857421875,0.19547687470912933,-1.7928894758224487,-0.7751879692077637
1750064034885131000,13.219131103515625,0.1618792861700058,-1.8503108024597168,-0.8319984674453735
1750064034901122300,13.235122314453125,0.17898350954055786,-1.8643606901168823,-0.8332201838493347
1750064034917083100,13.251083251953125,0.15271630883216858,-1.853365182876587,-0.7904596328735352
1750064034933043700,13.267043701171875,0.07024950534105301,-1.807550311088562,-0.7318165898323059
1750064034949004500,13.283004638671875,-0.018325956538319588,-1.6792685985565186,-0.6627888083457947
1750064034965056800,13.299056884765625,-0.04459316283464432,-1.4575244188308716,-0.6004805564880371
1750064034981047800,13.3150478515625,-0.045204028487205505,-1.2272282838821411,-0.5699372887611389
1750064034996978200,13.330978271484375,-0.05009094998240471,-0.9095783233642578,-0.5497786998748779
1750064035012999700,13.346999755859375,-0.05925392732024193,-0.5809328556060791,-0.5412266254425049
1750064035028991000,13.362990966796875,-0.04642575979232788,-0.2528982162475586,-0.5393940210342407
1750064035045012700,13.3790126953125,-0.00733038317412138,-0.18936823308467865,-0.5613851547241211
1750064035061004000,13.395004150390625,0.025656340643763542,-0.2669481039047241,-0.5448917746543884
1750064035076934100,13.41093408203125,0.09468411654233932,-0.41722095012664795,-0.38117989897727966
1750064035092925400,13.426925537109375,0.12828169763088226,-0.6255260109901428,-0.21563543379306793
1750064035108916500,13.44291650390625,0.17837265133857727,-0.9395107626914978,-0.13561208546161652
1750064035124968700,13.45896875,0.26633724570274353,-1.1832460165023804,-0.08674286305904388
1750064035140990500,13.474990478515625,0.30054569244384766,-1.3078625202178955,-0.04398229718208313
1750064035164946700,13.49894677734375,0.26083946228027344,-1.5234979391098022,0.015882495790719986
1750064035180938000,13.51493798828125,0.2321287989616394,-1.615127682685852,0.054367005825042725
1750064035196929300,13.53092919921875,0.22113321721553802,-1.6377297639846802,0.09224065393209457
1750064035212889900,13.546889892578125,0.2076941877603531,-1.6022995710372925,0.11667526513338089
1750064035228850700,13.5628505859375,0.1661553531885147,-1.5155566930770874,0.10873401165008545
1750064035244841700,13.578841796875,0.09407325088977814,-1.4123204946517944,0.07880161702632904
1750064035260772000,13.594772216796875,0.00427605677396059,-1.301142930984497,0.04153883829712868
1750064035276732700,13.610732666015625,-0.0708603709936142,-1.2308934926986694,0.009773843921720982
1750064035292693500,13.626693603515625,-0.1661553531885147,-1.1722503900527954,-0.04886921867728233
1750064035316619300,13.650619384765625,-0.26450464129447937,-1.0696250200271606,-0.19058994948863983
1750064035332610300,13.6666103515625,-0.29565876722335815,-0.9486737251281738,-0.31031954288482666
1750064035356658200,13.690658203125,-0.2779437005519867,-0.7006624341011047,-0.47830748558044434
1750064035372649500,13.7066494140625,-0.27977627515792847,-0.6102544069290161,-0.47280970215797424
1750064035388610000,13.722610107421875,-0.2736676335334778,-0.7312057018280029,-0.38728857040405273
1750064035412627500,13.74662744140625,-0.313373863697052,-1.1032226085662842,-0.20525072515010834
1750064035428588300,13.76258837890625,-0.4196644127368927,-1.2504411935806274,-0.14355333149433136
1750064035444640500,13.778640625,-0.5992587804794312,-1.292590856552124,-0.1618792861700058
1750064035460631600,13.794631591796875,-0.7324274182319641,-1.2205088138580322,-0.23273965716362
1750064035476592400,13.81059228515625,-0.79840087890625,-1.0378600358963013,-0.35735616087913513
1750064035492553000,13.826552978515625,-0.8307767510414124,-0.7855727076530457,-0.4911356568336487
1750064035508483000,13.842483154296875,-0.8552113175392151,-0.5387831330299377,-0.5827654600143433
1750064035524486000,13.85848583984375,-0.8417723178863525,-0.23457226157188416,-0.626747727394104
1750064035540446500,13.874446533203125,-0.7519751191139221,-0.00366519158706069,-0.5809328556060791
1750064035556437800,13.890437744140625,-0.6004805564880371,0.19425514340400696,-0.4709770977497101
1750064035572459500,13.90645947265625,-0.41233405470848083,0.27122417092323303,-0.3488040566444397
1750064035596446200,13.9304462890625,-0.13866640627384186,0.2736676335334778,-0.14966198801994324
1750064035612407000,13.946406982421875,0.0910189226269722,0.2926044464111328,0.08002334833145142
1750064035628367600,13.96236767578125,0.2718350291252136,0.16920967400074005,0.2620611786842346
1750064035644389400,13.978389404296875,0.40133845806121826,-0.07208210229873657,0.33292156457901
1750064035660380700,13.994380615234375,0.5607742667198181,-0.3604104816913605,0.33108896017074585
1750064035692271400,14.026271240234376,0.788016140460968,-0.6713408827781677,0.19547687470912933
1750064035708232200,14.042232177734375,0.826500654220581,-0.6927211880683899,0.14233160018920898
1750064035724254000,14.05825390625,0.8478809595108032,-0.6640105247497559,0.15577064454555511
1750064035740245000,14.074244873046876,0.8619308471679688,-0.6096435189247131,0.22602014243602753
1750064035756205800,14.090205810546875,0.8454375267028809,-0.5497786998748779,0.31642818450927734
1750064035780131600,14.114131591796875,0.7568620443344116,-0.3927863538265228,0.4453207552433014
1750064035796092200,14.130092041015626,0.6762278079986572,-0.2278527319431305,0.4899139404296875
1750064035812175000,14.146175048828125,0.5974262356758118,-0.031154127791523933,0.4911356568336487
1750064035828135700,14.1621357421875,0.5381723046302795,0.1472185254096985,0.46670106053352356
1750064035844157400,14.178157470703125,0.4899139404296875,0.3390302062034607,0.4092797040939331
1750064035860179200,14.19417919921875,0.46670106053352356,0.4740314185619354,0.35246923565864563
1750064035876139800,14.210139892578125,0.42760565876960754,0.5748242139816284,0.2871066629886627
1750064035892100600,14.2261005859375,0.3604104816913605,0.598647952079773,0.23518311977386475
1750064035908122400,14.242122314453125,0.2932153046131134,0.5583308339118958,0.2015855312347412
1750064035924113400,14.258113525390625,0.21930062770843506,0.45204028487205505,0.16859880089759827
1750064035940043800,14.274043701171875,0.1459967941045761,0.32498031854629517,0.14355333149433136
1750064035956004400,14.29000439453125,0.04764748737215996,0.16798794269561768,0.1007927656173706
1750064035971995600,14.30599560546875,-0.04092797264456749,0.05192354694008827,0.04398229718208313
1750064035987986700,14.321986572265626,-0.10751228034496307,0.031154127791523933,-0.012217304669320583
1750064036004008400,14.338008544921875,-0.19058994948863983,0.07024950534105301,-0.08674286305904388
1750064036019999700,14.353999755859375,-0.25534167885780334,0.10812314599752426,-0.13927727937698364
1750064036035960300,14.369960205078126,-0.31520646810531616,0.12400564551353455,-0.17776179313659668
1750064036051921200,14.385921142578125,-0.37140607833862305,0.10873401165008545,-0.1918116807937622
1750064036075938600,14.4099384765625,-0.43799036741256714,0.05009094998240471,-0.2064724564552307
1750064036091960000,14.4259599609375,-0.44654250144958496,0.00366519158706069,-0.21807889640331268
1750064036107951400,14.441951416015625,-0.43737950921058655,-0.0555887371301651,-0.23335053026676178
1750064036123942700,14.457942626953125,-0.42210787534713745,-0.10690141469240189,-0.24068090319633484
1750064036147868400,14.481868408203125,-0.36529740691185,-0.18020524084568024,-0.22846360504627228
1750064036163890200,14.49789013671875,-0.30482175946235657,-0.21563543379306793,-0.21135938167572021
1750064036187846400,14.521846435546875,-0.20097467303276062,-0.20952677726745605,-0.17531833052635193
1750064036203868200,14.5378681640625,-0.13744467496871948,-0.17348572611808777,-0.14844025671482086
1750064036219828700,14.553828857421875,-0.0659734457731247,-0.12522737681865692,-0.11545353382825851
1750064036235820000,14.569820068359375,0.006719517521560192,-0.08979719132184982,-0.0757472887635231
1750064036251780900,14.58578076171875,0.05742133408784866,-0.13377949595451355,-0.056810468435287476
1750064036267741400,14.601741455078125,0.10262536257505417,-0.23457226157188416,-0.027488935738801956
1750064036283763200,14.61776318359375,0.13255776464939117,-0.33047810196876526,-0.0006108652451075613
1750064036307658500,14.641658447265625,0.1508837193250656,-0.4648684561252594,0.03848451003432274
1750064036323649500,14.6576494140625,0.15393804013729095,-0.5027421116828918,0.05742133408784866
1750064036339640800,14.673640869140625,0.14782938361167908,-0.4758640229701996,0.0806342139840126
1750064036355601700,14.6896015625,0.13927727937698364,-0.4178318381309509,0.10262536257505417
1750064036371562200,14.705562255859375,0.12461651116609573,-0.33108896017074585,0.1319468915462494
1750064036387522800,14.721522705078126,0.11789698898792267,-0.2370157092809677,0.16371189057826996
1750064036403575300,14.7375751953125,0.10384709388017654,-0.12522737681865692,0.20097467303276062
1750064036419505400,14.75350537109375,0.0757472887635231,-0.01160643994808197,0.23029619455337524
1750064036435466000,14.769466064453125,0.051312681287527084,0.07696902006864548,0.24434609711170197
1750064036451426800,14.7854267578125,0.02871066704392433,0.1661553531885147,0.24678955972194672
1750064036467387400,14.801387451171875,0.010995574295520782,0.21930062770843506,0.23518311977386475
1750064036483409200,14.8174091796875,-0.013439035043120384,0.2480112910270691,0.21135938167572021
1750064036499400400,14.833400390625,-0.04642575979232788,0.22846360504627228,0.17348572611808777
1750064036515330600,14.84933056640625,-0.06536258012056351,0.18631389737129211,0.13927727937698364
1750064036531321900,14.86532177734375,-0.07819075137376785,0.12461651116609573,0.10018189996480942
1750064036547313000,14.88131298828125,-0.08002334833145142,0.07330382615327835,0.06414084881544113
1750064036563304200,14.89730419921875,-0.07452555745840073,0.025045474991202354,0.022602014243602753
1750064036579295500,14.91329541015625,-0.05497787147760391,-0.013439035043120384,-0.014049900695681572
1750064036595256000,14.929256103515625,-0.04153883829712868,-0.039706241339445114,-0.039706241339445114
1750064036611247400,14.945247314453125,-0.03237585723400116,-0.06963863968849182,-0.06291911751031876
1750064036627269000,14.96126904296875,-0.015271631069481373,-0.08918632566928864,-0.07635815441608429
1750064036651255800,14.985255859375,0.031154127791523933,-0.09773843735456467,-0.08735372871160507
1750064036667216600,15.001216552734375,0.06902777403593063,-0.09896016865968704,-0.08552113175392151
1750064036683238100,15.017238037109376,0.09773843735456467,-0.09468411654233932,-0.08307767659425735
1750064036699229400,15.0332294921875,0.11545353382825851,-0.10384709388017654,-0.08979719132184982
1750064036715190300,15.049190185546875,0.13927727937698364,-0.1270599663257599,-0.10384709388017654
1750064036731120400,15.065120361328125,0.15943582355976105,-0.1508837193250656,-0.10323622822761536
1750064036747111700,15.081111572265625,0.182648703455925,-0.17043140530586243,-0.08307767659425735
1750064036763164000,15.097163818359375,0.20525072515010834,-0.19120082259178162,-0.04886921867728233
1750064036779155000,15.113155029296875,0.21807889640331268,-0.19853121042251587,-0.009162978269159794
1750064036795115800,15.12911572265625,0.2168571650981903,-0.17837265133857727,0.02871066704392433
1750064036811106800,15.14510693359375,0.19792033731937408,-0.15821409225463867,0.048258353024721146
1750064036827067600,15.161067626953125,0.17104226350784302,-0.1368338167667389,0.05497787147760391
1750064036843089400,15.17708935546875,0.13255776464939117,-0.11667526513338089,0.059864792972803116
1750064036859019500,15.19301953125,0.08979719132184982,-0.1062905490398407,0.06414084881544113
1750064036874949600,15.20894970703125,0.04764748737215996,-0.10262536257505417,0.07941248267889023
1750064036890910500,15.224910400390625,0.01710422709584236,-0.07635815441608429,0.09651670604944229
1750064036906871000,15.24087109375,-0.025045474991202354,-0.01160643994808197,0.1111774742603302
1750064036922923300,15.25692333984375,-0.05925392732024193,0.0806342139840126,0.11178833991289139
1750064036938853400,15.272853271484376,-0.07269296050071716,0.15882496535778046,0.10201449692249298
1750064036954814200,15.288814208984375,-0.08185594528913498,0.2223549485206604,0.09162978827953339
1750064036970774800,15.30477490234375,-0.09468411654233932,0.24678955972194672,0.08674286305904388
1750064036986766000,15.32076611328125,-0.10934487730264664,0.22602014243602753,0.07880161702632904
1750064037002787800,15.336787841796875,-0.1215621829032898,0.1765400618314743,0.06780604273080826
1750064037018779100,15.352779052734375,-0.13316862285137177,0.12828169763088226,0.04948008432984352
1750064037034709200,15.368709228515625,-0.13744467496871948,0.07941248267889023,0.018936822190880775
1750064037050700500,15.384700439453125,-0.12339477986097336,0.0507018156349659,-0.01038470957428217
1750064037066661000,15.4006611328125,-0.08918632566928864,0.029932396486401558,-0.03726277872920036
1750064037082713300,15.41671337890625,-0.036651913076639175,0.024434609338641167,-0.04703662544488907
1750064037098704600,15.43270458984375,0.028099801391363144,0.021380282938480377,-0.03481931984424591
1750064037114634800,15.448634765625,0.10262536257505417,-0.018325956538319588,-0.01038470957428217
1750064037130626000,15.4646259765625,0.15577064454555511,-0.1160643994808197,0.006108652334660292
1750064037146617000,15.4806171875,0.20097467303276062,-0.2828305959701538,0.010995574295520782
1750064037162608400,15.4966083984375,0.24007004499435425,-0.44226643443107605,0.006108652334660292
1750064037178569000,15.51256884765625,0.2565633952617645,-0.5375614166259766,-0.005497787147760391
1750064037194529800,15.52852978515625,0.2571742534637451,-0.5797111392021179,-0.013439035043120384
1750064037210521000,15.54452099609375,0.24984388053417206,-0.5589417219161987,-0.015271631069481373
1750064037226481700,15.560481689453125,0.21930062770843506,-0.48258355259895325,-0.005497787147760391
1750064037242473000,15.576472900390625,0.17348572611808777,-0.3530801236629486,0.01038470957428217
1750064037258464000,15.592464111328125,0.13439035415649414,-0.23335053026676178,0.02321287989616394
1750064037274424800,15.6084248046875,0.08979719132184982,-0.09285151958465576,0.028099801391363144
1750064037290415900,15.624415771484376,0.04153883829712868,0.028099801391363144,0.02871066704392433
1750064037306376700,15.640376708984375,-0.00733038317412138,0.12889257073402405,0.02321287989616394
1750064037322398500,15.6563984375,-0.0507018156349659,0.17287486791610718,0.015271631069481373
1750064037338420200,15.672420166015625,-0.08979719132184982,0.1771509200334549,0.018325956538319588
1750064037354380800,15.688380859375,-0.12950342893600464,0.17592918872833252,0.027488935738801956
1750064037370341600,15.704341552734375,-0.15760323405265808,0.1771509200334549,0.03298672288656235
1750064037394328300,15.728328369140625,-0.19058994948863983,0.19853121042251587,0.024434609338641167
1750064037410319600,15.744319580078125,-0.18936823308467865,0.2021963894367218,0.012828170321881771
1750064037426280200,15.7602802734375,-0.17409659922122955,0.18387043476104736,0.00733038317412138
1750064037442271500,15.776271484375,-0.1514945775270462,0.1508837193250656,0.009773843921720982
1750064037458262800,15.7922626953125,-0.11178833991289139,0.09896016865968704,0.01466076634824276
1750064037474223400,15.808223388671875,-0.07208210229873657,0.05009094998240471,0.01771509274840355
1750064037490184200,15.82418408203125,-0.03237585723400116,-0.003054326167330146,0.014049900695681572
1750064037506114300,15.8401142578125,0.025045474991202354,-0.0708603709936142,0.004886921960860491
1750064037522136000,15.856135986328125,0.07941248267889023,-0.12767083942890167,0.00366519158706069
1750064037538157800,15.87215771484375,0.12889257073402405,-0.192422553896904,0.01160643994808197
1750064037554118400,15.888118408203125,0.16371189057826996,-0.2590068578720093,0.015882495790719986
1750064037570079000,15.904078857421876,0.2021963894367218,-0.34208452701568604,0.015882495790719986
1750064037586070300,15.9200703125,0.22052235901355743,-0.41233405470848083,0.016493361443281174
1750064037602092000,15.936092041015625,0.21380282938480377,-0.4386012554168701,0.012217304669320583
1750064037618022100,15.952022216796875,0.21563543379306793,-0.42638394236564636,0.01038470957428217
1750064037633983000,15.96798291015625,0.22479841113090515,-0.38728857040405273,0.01466076634824276
1750064037649913000,15.9839130859375,0.2064724564552307,-0.31031954288482666,0.02871066704392433
1750064037665904400,15.999904296875,0.16798794269561768,-0.22052235901355743,0.045204028487205505
1750064037681926000,16.01592578125,0.1417207419872284,-0.13988813757896423,0.054367005825042725
1750064037697886700,16.03188671875,0.10323622822761536,-0.0555887371301651,0.05803219974040985
1750064037713847300,16.047847412109373,0.0507018156349659,-0.0006108652451075613,0.04764748737215996
1750064037729808100,16.06380810546875,-0.0012217304902151227,0.051312681287527084,0.02932153269648552
1750064037745768700,16.079768798828123,-0.04581489413976669,0.07635815441608429,0.01160643994808197
1750064037761790500,16.09579052734375,-0.08185594528913498,0.11239920556545258,0.006108652334660292
1750064037777751300,16.111751220703123,-0.10445795953273773,0.16004669666290283,0.009162978269159794
1750064037793711900,16.1277119140625,-0.11728613078594208,0.19303341209888458,0.01160643994808197
1750064037809642000,16.14364208984375,-0.12828169763088226,0.21074850857257843,0.015271631069481373
1750064037825663700,16.159663818359373,-0.12339477986097336,0.20525072515010834,0.00855211354792118
1750064037841685500,16.175685546875,-0.11178833991289139,0.1771509200334549,0.00427605677396059
1750064037857707300,16.191707275390623,-0.09040805697441101,0.1319468915462494,0.01038470957428217
1750064037881663500,16.21566357421875,-0.04703662544488907,0.048258353024721146,0.01160643994808197
1750064037897654800,16.23165478515625,-0.006719517521560192,-0.006719517521560192,0.012217304669320583
1750064037913615400,16.247615478515623,0.027488935738801956,-0.08307767659425735,0.009162978269159794
1750064037929576200,16.263576171875,0.06414084881544113,-0.14233160018920898,0.009773843921720982
1750064037945536800,16.279536865234373,0.09346238523721695,-0.1814269721508026,0.013439035043120384
1750064037961589000,16.295589111328123,0.11239920556545258,-0.22602014243602753,0.015882495790719986
1750064037977580300,16.311580322265623,0.13072516024112701,-0.2565633952617645,0.01710422709584236
1750064037993541000,16.327541015625,0.14477506279945374,-0.27611109614372253,0.018936822190880775
1750064038009471200,16.34347119140625,0.14416420459747314,-0.2767219543457031,0.02321287989616394
1750064038025462300,16.359462158203126,0.1313360333442688,-0.2620611786842346,0.02687807008624077
1750064038041484000,16.375484130859373,0.11911872029304504,-0.2272418737411499,0.03176499158143997
1750064038057414400,16.391414306640623,0.10567969083786011,-0.18325957655906677,0.03237585723400116
1750064038073375000,16.407375,0.07696902006864548,-0.11789698898792267,0.03176499158143997
1750064038089335600,16.42333544921875,0.04642575979232788,-0.056810468435287476,0.02382374368607998
1750064038105326800,16.439326904296873,0.031154127791523933,-0.009773843921720982,0.02015855349600315
1750064038121348600,16.4553486328125,-0.0006108652451075613,0.015882495790719986,0.021991148591041565
1750064038137309200,16.47130908203125,-0.018325956538319588,0.033597588539123535,0.02871066704392433
1750064038153270000,16.48727001953125,-0.03420845419168472,0.0507018156349659,0.03481931984424591
1750064038169261300,16.50326123046875,-0.04337143152952194,0.07024950534105301,0.03726277872920036
1750064038185252400,16.51925244140625,-0.054367005825042725,0.08185594528913498,0.030543262138962746
1750064038201274000,16.535274169921873,-0.054367005825042725,0.08918632566928864,0.025045474991202354
1750064038217265400,16.551265380859373,-0.04642575979232788,0.07880161702632904,0.021380282938480377
1750064038233256400,16.56725634765625,-0.039706241339445114,0.05619960278272629,0.02382374368607998
1750064038249278200,16.5832783203125,-0.021380282938480377,0.030543262138962746,0.027488935738801956
1750064038265269500,16.59926953125,0.0012217304902151227,-0.00427605677396059,0.025045474991202354
1750064038281291300,16.615291259765623,0.021991148591041565,-0.04764748737215996,0.018936822190880775
1750064038297221400,16.631221435546873,0.036041051149368286,-0.0757472887635231,0.015271631069481373
1750064038313151500,16.6471513671875,0.060475658625364304,-0.10751228034496307,0.012217304669320583
1750064038329142800,16.663142822265623,0.07819075137376785,-0.15027284622192383,0.009773843921720982
1750064038345103600,16.679103515625,0.08368854224681854,-0.1771509200334549,0.006108652334660292
1750064038361094700,16.6950947265625,0.08674286305904388,-0.19792033731937408,0.00427605677396059
1750064038377086000,16.7110859375,0.09468411654233932,-0.20036379992961884,0.004886921960860491
1750064038393077200,16.7270771484375,0.09346238523721695,-0.18936823308467865,0.00427605677396059
1750064038409068300,16.743068359375,0.0757472887635231,-0.16310101747512817,0.009773843921720982
1750064038425059600,16.7590595703125,0.06230825558304787,-0.13805554807186127,0.012217304669320583
1750064038441051000,16.77505078125,0.051312681287527084,-0.10934487730264664,0.015271631069481373
1750064038457011500,16.791011474609373,0.02932153269648552,-0.07696902006864548,0.01771509274840355
1750064038472972000,16.806971923828126,0.006719517521560192,-0.036041051149368286,0.024434609338641167
1750064038488963300,16.82296337890625,-0.00855211354792118,0.00366519158706069,0.02932153269648552
1750064038504954600,16.83895458984375,-0.021380282938480377,0.036041051149368286,0.03237585723400116
1750064038521006800,16.8550068359375,-0.028099801391363144,0.06291911751031876,0.031154127791523933
1750064038536998100,16.870998046875,-0.02932153269648552,0.06963863968849182,0.029932396486401558
1750064038552958700,16.886958740234373,-0.022602014243602753,0.06108652427792549,0.033597588539123535
1750064038568919300,16.902919189453126,-0.007941247895359993,0.03848451003432274,0.03420845419168472
1750064038584880000,16.918880126953123,0.00733038317412138,0.009773843921720982,0.03420845419168472
1750064038600902000,16.93490185546875,0.018325956538319588,-0.02626720629632473,0.030543262138962746
1750064038616893000,16.950892822265626,0.03176499158143997,-0.05864306539297104,0.02626720629632473
1750064038632823300,16.9668232421875,0.04459316283464432,-0.09346238523721695,0.019547687843441963
1750064038648814300,16.982814453125,0.0507018156349659,-0.1319468915462494,0.01710422709584236
1750064038664836000,16.998836181640623,0.05497787147760391,-0.14782938361167908,0.012828170321881771
1750064038680888300,17.014888427734373,0.06291911751031876,-0.15332718193531036,0.006719517521560192
1750064038696849200,17.03084912109375,0.06658431142568588,-0.15577064454555511,0.001832595793530345
1750064038712779300,17.046779296875,0.06291911751031876,-0.15515977144241333,-0.0012217304902151227
1750064038728801000,17.062801025390623,0.06230825558304787,-0.14416420459747314,0.0006108652451075613
1750064038744761600,17.07876171875,0.06352998316287994,-0.1270599663257599,0.0012217304902151227
1750064038760783400,17.094783447265623,0.05619960278272629,-0.10506882518529892,0.0006108652451075613
1750064038776774700,17.110774658203123,0.04214970022439957,-0.08552113175392151,0.001832595793530345
1750064038792704800,17.126704833984373,0.03726277872920036,-0.06169738993048668,0.00855211354792118
1750064038808696000,17.142696044921873,0.03237585723400116,-0.04398229718208313,0.012828170321881771
1750064038824656600,17.15865673828125,0.02321287989616394,-0.02932153269648552,0.01466076634824276
1750064038840678400,17.174678466796873,0.01466076634824276,-0.02015855349600315,0.012828170321881771
1750064038856669700,17.190669677734373,0.009773843921720982,-0.01160643994808197,0.012217304669320583
1750064038872630300,17.20663037109375,0.00733038317412138,-0.006108652334660292,0.01160643994808197
1750064038888621600,17.22262158203125,0.010995574295520782,-0.01160643994808197,0.007941247895359993
1750064038904582100,17.23858203125,0.021380282938480377,-0.022602014243602753,0.00733038317412138
1750064038920634600,17.254634521484373,0.031154127791523933,-0.05619960278272629,0.007941247895359993
1750064038936625700,17.270625732421873,0.03298672288656235,-0.08979719132184982,0.012217304669320583
1750064038952586500,17.28658642578125,0.0403171069920063,-0.11850785464048386,0.016493361443281174
1750064038968547000,17.302547119140623,0.04581489413976669,-0.13255776464939117,0.016493361443281174
1750064038984538400,17.318538330078123,0.042760565876960754,-0.1313360333442688,0.015271631069481373
1750064039000560000,17.33456005859375,0.036041051149368286,-0.1111774742603302,0.018325956538319588
1750064039016520700,17.350520751953123,0.03237585723400116,-0.08491026610136032,0.029932396486401558
1750064039040507600,17.374507568359373,0.02382374368607998,-0.05009094998240471,0.0403171069920063
1750064039056498700,17.390498779296873,0.01466076634824276,-0.0354301854968071,0.03726277872920036
1750064039072459500,17.40645947265625,0.016493361443281174,-0.02076941914856434,0.036651913076639175
1750064039088420000,17.422420166015623,0.013439035043120384,-0.007941247895359993,0.04092797264456749
1750064039104381000,17.438380859375,0.009773843921720982,-0.0024434609804302454,0.05192354694008827
1750064039120402700,17.454402587890623,0.01038470957428217,0.0006108652451075613,0.06414084881544113
1750064039136332800,17.470332763671873,0.009773843921720982,0.001832595793530345,0.07024950534105301
1750064039152293400,17.48629345703125,0.00855211354792118,0.00855211354792118,0.0708603709936142
1750064039168284700,17.50228466796875,0.01038470957428217,0.015271631069481373,0.06291911751031876
1750064039184276000,17.51827587890625,0.009162978269159794,0.013439035043120384,0.059864792972803116
1750064039200267000,17.53426708984375,0.009773843921720982,0.009773843921720982,0.05375614017248154
1750064039216197000,17.550197021484376,0.015271631069481373,-0.003054326167330146,0.04398229718208313
1750064039232158000,17.566157958984373,0.021380282938480377,-0.022602014243602753,0.02932153269648552
1750064039248118500,17.582118408203126,0.03176499158143997,-0.033597588539123535,0.013439035043120384
1750064039264109800,17.59810986328125,0.042760565876960754,-0.048258353024721146,-0.00366519158706069
1750064039280131600,17.614131591796873,0.05864306539297104,-0.06719517707824707,-0.010995574295520782
1750064039296092200,17.630092041015626,0.07024950534105301,-0.08735372871160507,-0.00855211354792118
1750064039312022500,17.6460224609375,0.07391469180583954,-0.1270599663257599,-0.010995574295520782
1750064039327952600,17.66195263671875,0.07330382615327835,-0.15332718193531036,-0.010995574295520782
1750064039343974400,17.677974365234373,0.0708603709936142,-0.1612684279680252,-0.01038470957428217
1750064039360026600,17.694026611328123,0.06902777403593063,-0.14905111491680145,-0.010995574295520782
1750064039376018000,17.710017822265623,0.06291911751031876,-0.12889257073402405,-0.010995574295520782
1750064039391948000,17.725947998046873,0.05803219974040985,-0.09712757170200348,-0.00427605677396059
1750064039407969800,17.7419697265625,0.05314527451992035,-0.08796459436416626,0.004886921960860491
1750064039423930400,17.757930419921873,0.04398229718208313,-0.08002334833145142,0.016493361443281174
1750064039439952100,17.7739521484375,0.036651913076639175,-0.07391469180583954,0.02871066704392433
1750064039455882200,17.78988232421875,0.02382374368607998,-0.06658431142568588,0.03848451003432274
1750064039471873500,17.80587353515625,0.005497787147760391,-0.04886921867728233,0.04703662544488907
1750064039487834000,17.821834228515623,-0.006108652334660292,-0.018936822190880775,0.05619960278272629
1750064039503795000,17.837794921875,-0.014049900695681572,0.021380282938480377,0.06536258012056351
1750064039519816700,17.853816650390623,-0.01771509274840355,0.04398229718208313,0.07208210229873657
1750064039535807700,17.869807861328123,-0.021991148591041565,0.0555887371301651,0.07696902006864548
1750064039551738000,17.885738037109373,-0.024434609338641167,0.04703662544488907,0.07330382615327835
1750064039567729200,17.901729248046873,-0.02076941914856434,0.033597588539123535,0.06780604273080826
1750064039583720400,17.917720458984373,-0.014049900695681572,0.012217304669320583,0.05864306539297104
1750064039599742200,17.9337421875,0.0012217304902151227,0,0.04642575979232788
1750064039615672300,17.94967236328125,0.021991148591041565,-0.01466076634824276,0.03848451003432274
1750064039631663600,17.96566357421875,0.04214970022439957,-0.04948008432984352,0.033597588539123535
1750064039647624200,17.981624267578123,0.045204028487205505,-0.08246681094169617,0.03176499158143997
1750064039663646000,17.99764599609375,0.04459316283464432,-0.12828169763088226,0.02382374368607998
1750064039679667700,18.013667724609373,0.05742133408784866,-0.15393804013729095,0.006719517521560192
1750064039695628300,18.029628173828126,0.06169738993048668,-0.1563815027475357,-0.009162978269159794
1750064039711589000,18.045589111328123,0.06230825558304787,-0.14782938361167908,-0.02076941914856434
1750064039727611000,18.06161083984375,0.05192354694008827,-0.1362229436635971,-0.022602014243602753
1750064039743602000,18.077601806640626,0.03176499158143997,-0.11056660860776901,-0.02321287989616394
1750064039759623700,18.093623779296873,0.02382374368607998,-0.07147123664617538,-0.027488935738801956
1750064039775584500,18.10958447265625,0.025656340643763542,-0.028099801391363144,-0.03237585723400116
1750064039791514600,18.1255146484375,0.03237585723400116,0.010995574295520782,-0.028099801391363144
1750064039807475200,18.14147509765625,0.039706241339445114,0.006719517521560192,-0.012828170321881771
1750064039823466500,18.157466552734373,0.04092797264456749,-0.031154127791523933,0.016493361443281174
1750064039839457800,18.173457763671873,0.033597588539123535,-0.09162978827953339,0.03848451003432274
1750064039855388000,18.189387939453123,0.02626720629632473,-0.11423180252313614,0.04642575979232788
1750064039871348700,18.2053486328125,0.031154127791523933,-0.08185594528913498,0.04642575979232788
1750064039887309300,18.221309326171873,0.04398229718208313,-0.04764748737215996,0.04703662544488907
1750064039903270000,18.237269775390626,0.048258353024721146,-0.024434609338641167,0.05253441259264946
1750064039919261200,18.25326123046875,0.04459316283464432,-0.04642575979232788,0.060475658625364304
1750064039943156500,18.277156494140623,0.045204028487205505,-0.09712757170200348,0.06475171446800232
1750064039959178200,18.29317822265625,0.039095375686883926,-0.11239920556545258,0.05742133408784866
1750064039975200000,18.309199951171873,0.030543262138962746,-0.08918632566928864,0.051312681287527084
1750064039991160600,18.32516064453125,0.028099801391363144,-0.05375614017248154,0.04642575979232788
1750064040007090700,18.341090576171876,0.018936822190880775,-0.015882495790719986,0.03848451003432274
1750064040023051500,18.357051513671873,0,0.003054326167330146,0.02687807008624077
1750064040039073300,18.3730732421875,-0.006108652334660292,0.01038470957428217,0.015882495790719986
1750064040055003400,18.38900341796875,0.0006108652451075613,0.006108652334660292,0.005497787147760391
1750064040070964000,18.4049638671875,0.00427605677396059,-0.006719517521560192,-0.001832595793530345
1750064040086924800,18.4209248046875,0.006108652334660292,-0.027488935738801956,-0.00427605677396059
1750064040102885400,18.436885498046873,0.012217304669320583,-0.0507018156349659,-0.010995574295520782
1750064040118907100,18.4529072265625,0.016493361443281174,-0.06291911751031876,-0.016493361443281174
1750064040134837500,18.46883740234375,0.018325956538319588,-0.06902777403593063,-0.02321287989616394
1750064040150828500,18.48482861328125,0.027488935738801956,-0.0708603709936142,-0.02382374368607998
1750064040166789400,18.500789306640623,0.0403171069920063,-0.0861319974064827,-0.018936822190880775
1750064040182750000,18.51675,0.04459316283464432,-0.10873401165008545,-0.006719517521560192
1750064040198771700,18.532771728515623,0.04886921867728233,-0.12828169763088226,-0.0012217304902151227
1750064040214763000,18.548762939453123,0.05497787147760391,-0.1411098688840866,-0.0006108652451075613
1750064040230723600,18.5647236328125,0.05925392732024193,-0.13988813757896423,0.0024434609804302454
1750064040246684400,18.580684326171873,0.06108652427792549,-0.12889257073402405,0.012828170321881771
1750064040262645000,18.59664501953125,0.06536258012056351,-0.12950342893600464,0.027488935738801956
1750064040278697200,18.612697265625,0.059864792972803116,-0.13072516024112701,0.036041051149368286
1750064040294688500,18.6286884765625,0.04703662544488907,-0.1215621829032898,0.039706241339445114
1750064040310649000,18.644649169921873,0.03787364438176155,-0.10262536257505417,0.03848451003432274
1750064040326610000,18.66060986328125,0.028099801391363144,-0.07391469180583954,0.03481931984424591
1750064040342601000,18.67660107421875,0.012828170321881771,-0.04337143152952194,0.03848451003432274
1750064040358622700,18.692622802734373,0.0024434609804302454,-0.021380282938480377,0.03848451003432274
1750064040374614000,18.708614013671873,-0.01038470957428217,-0.005497787147760391,0.0403171069920063
1750064040390605300,18.724605224609373,-0.02015855349600315,0.00733038317412138,0.039095375686883926
1750064040406596400,18.740596435546873,-0.027488935738801956,0.02321287989616394,0.0354301854968071
1750064040422557200,18.75655712890625,-0.02076941914856434,0.02932153269648552,0.03298672288656235
1750064040438609400,18.772609375,-0.013439035043120384,0.025045474991202354,0.031154127791523933
1750064040454600400,18.788600341796876,-0.012217304669320583,0.015271631069481373,0.025045474991202354
1750064040470561300,18.804561279296873,0,-0.0012217304902151227,0.018325956538319588
1750064040486491400,18.820491455078123,0.025045474991202354,-0.03481931984424591,0.006108652334660292
1750064040502452200,18.8364521484375,0.036041051149368286,-0.07941248267889023,-0.004886921960860491
1750064040518474000,18.852473876953123,0.051312681287527084,-0.11911872029304504,-0.01466076634824276
1750064040534465000,18.868465087890623,0.07024950534105301,-0.1661553531885147,-0.01771509274840355
1750064040550425900,18.88442578125,0.07452555745840073,-0.18509216606616974,-0.018936822190880775
1750064040566417000,18.9004169921875,0.07696902006864548,-0.18875735998153687,-0.018936822190880775
1750064040582377700,18.916377685546873,0.08307767659425735,-0.1765400618314743,-0.01771509274840355
1750064040598430000,18.932429931640623,0.08429940044879913,-0.16065755486488342,-0.015271631069481373
1750064040614421200,18.948421142578123,0.06902777403593063,-0.1417207419872284,-0.006719517521560192
1750064040630381800,18.9643818359375,0.056810468435287476,-0.1258382350206375,0.0012217304902151227
1750064040646312000,18.98031201171875,0.0403171069920063,-0.1014036312699318,0.007941247895359993
1750064040662272800,18.996272705078123,0.018325956538319588,-0.05742133408784866,0.01771509274840355
1750064040678294500,19.01229443359375,0.00733038317412138,-0.01466076634824276,0.024434609338641167
1750064040694285600,19.02828564453125,0.006108652334660292,0.025045474991202354,0.02382374368607998
1750064040710246400,19.044246337890623,0.001832595793530345,0.030543262138962746,0.018325956538319588
1750064040726207000,19.06020703125,-0.00366519158706069,0.01466076634824276,0.02382374368607998
1750064040742167800,19.076167724609373,-0.00366519158706069,-0.018325956538319588,0.030543262138962746
1750064040758158800,19.092158935546873,0.001832595793530345,-0.04703662544488907,0.036651913076639175
1750064040774150100,19.108150146484373,-0.0006108652451075613,-0.06108652427792549,0.033597588539123535
1750064040790110700,19.12411083984375,0.006108652334660292,-0.054367005825042725,0.02321287989616394
1750064040806102000,19.14010205078125,0.021380282938480377,-0.04398229718208313,0.014049900695681572
1750064040822093300,19.15609326171875,0.025656340643763542,-0.04214970022439957,0.016493361443281174
1750064040838115000,19.172114990234373,0.029932396486401558,-0.059864792972803116,0.021380282938480377
1750064040854045200,19.188045166015623,0.04092797264456749,-0.0959058403968811,0.02382374368607998
1750064040870005800,19.204005859375,0.04153883829712868,-0.1313360333442688,0.014049900695681572
1750064040885997000,19.2199970703125,0.04153883829712868,-0.152105450630188,-0.004886921960860491
1750064040902018800,19.236018798828123,0.05742133408784866,-0.15332718193531036,-0.01771509274840355
1750064040918040600,19.25204052734375,0.06230825558304787,-0.1472185254096985,-0.01771509274840355
1750064040933970700,19.267970703125,0.06291911751031876,-0.14477506279945374,-0.00733038317412138
1750064040949900800,19.28390087890625,0.06658431142568588,-0.14538592100143433,0.001832595793530345
1750064040965892000,19.29989208984375,0.06841690838336945,-0.14049901068210602,0.004886921960860491
1750064040981883400,19.31588330078125,0.05742133408784866,-0.1215621829032898,0.006719517521560192
1750064040997905000,19.33190478515625,0.04581489413976669,-0.09651670604944229,0.012217304669320583
1750064041013896200,19.347896240234373,0.048258353024721146,-0.06536258012056351,0.02076941914856434
1750064041029857000,19.36385693359375,0.05192354694008827,-0.04092797264456749,0.03237585723400116
1750064041045787100,19.379787109375,0.05864306539297104,-0.02626720629632473,0.03848451003432274
1750064041061778200,19.395778076171876,0.06841690838336945,-0.02932153269648552,0.04948008432984352
1750064041077830700,19.41183056640625,0.0708603709936142,-0.045204028487205505,0.05497787147760391
1750064041093852200,19.42785205078125,0.0555887371301651,-0.07269296050071716,0.054367005825042725
1750064041109813000,19.44381298828125,0.04459316283464432,-0.08124507963657379,0.04092797264456749
1750064041125743000,19.4597431640625,0.04398229718208313,-0.07391469180583954,0.02076941914856434
1750064041141704000,19.475703857421873,0.03848451003432274,-0.0507018156349659,0.00427605677396059
1750064041157695000,19.491695068359373,0.03420845419168472,-0.028099801391363144,0.0024434609804302454
1750064041173686300,19.507686279296873,0.03481931984424591,-0.025045474991202354,0.01160643994808197
1750064041189646800,19.523646728515626,0.02871066704392433,-0.039706241339445114,0.01466076634824276
1750064041205607700,19.539607666015623,0.02076941914856434,-0.06108652427792549,0.006719517521560192
1750064041221568300,19.555568359375,0.014049900695681572,-0.08246681094169617,-0.01160643994808197
1750064041237620500,19.571620361328126,0.01160643994808197,-0.08979719132184982,-0.02321287989616394
1750064041253611800,19.58761181640625,0.005497787147760391,-0.08429940044879913,-0.025045474991202354
1750064041277598700,19.6115986328125,0.014049900695681572,-0.07391469180583954,-0.01710422709584236
1750064041293589800,19.62758984375,0.012828170321881771,-0.07269296050071716,-0.01160643994808197
1750064041309520100,19.64352001953125,0.01710422709584236,-0.07757988572120667,-0.006108652334660292
1750064041325511200,19.65951123046875,0.03176499158143997,-0.07635815441608429,0.0024434609804302454
1750064041341533000,19.675532958984373,0.05619960278272629,-0.07635815441608429,0.014049900695681572
1750064041357585200,19.691585205078123,0.08246681094169617,-0.0659734457731247,0.030543262138962746
1750064041373576400,19.707576416015623,0.10567969083786011,-0.056810468435287476,0.056810468435287476
1750064041389537000,19.723537109375,0.11301007121801376,-0.06230825558304787,0.08552113175392151
1750064041405467400,19.73946728515625,0.09773843735456467,-0.08124507963657379,0.10751228034496307
1750064041421428000,19.755427978515623,0.0757472887635231,-0.08429940044879913,0.10995574295520782
1750064041437449700,19.77144970703125,0.0507018156349659,-0.06719517707824707,0.09468411654233932
1750064041453441000,19.78744091796875,0.03298672288656235,-0.029932396486401558,0.07513642311096191
1750064041469401600,19.803401611328123,0.02321287989616394,0.006719517521560192,0.06658431142568588
1750064041485362200,19.819362060546876,0.02321287989616394,0.024434609338641167,0.07208210229873657
1750064041501353500,19.835353515625,0.025045474991202354,0.01160643994808197,0.08307767659425735
1750064041533397000,19.86739697265625,-0.025045474991202354,-0.06169738993048668,0.059864792972803116
1750064041549388300,19.88338818359375,-0.04703662544488907,-0.07819075137376785,0.01710422709584236
1750064041565318400,19.899318359375,-0.08002334833145142,-0.07330382615327835,-0.03848451003432274
1750064041581340200,19.915340087890623,-0.1007927656173706,-0.03481931984424591,-0.06414084881544113
1750064041597362000,19.93136181640625,-0.10812314599752426,0.03298672288656235,-0.05925392732024193
1750064041613383400,19.947383544921873,-0.09896016865968704,0.09468411654233932,-0.02932153269648552
1750064041629313800,19.963313720703123,-0.08674286305904388,0.12278391420841217,-0.005497787147760391
1750064041645304800,19.979304931640623,-0.06169738993048668,0.10567969083786011,0.00427605677396059
1750064041661296000,19.995296142578123,-0.03787364438176155,0.051312681287527084,-0.0024434609804302454
1750064041677318000,20.01131787109375,-0.021380282938480377,-0.05009094998240471,-0.021380282938480377
1750064041693248000,20.027248046875,0.0006108652451075613,-0.1661553531885147,-0.036651913076639175
1750064041709208800,20.043208740234373,0.02076941914856434,-0.25045475363731384,-0.036041051149368286
1750064041725200000,20.059199951171873,0.039706241339445114,-0.2987131178379059,-0.022602014243602753
1750064041741191200,20.075191162109373,0.05925392732024193,-0.2926044464111328,-0.0024434609804302454
1750064041757213000,20.091212890625,0.07696902006864548,-0.2535090744495392,0.018936822190880775
1750064041773143000,20.10714306640625,0.07696902006864548,-0.20830504596233368,0.029932396486401558
1750064041789103600,20.123103515625,0.06169738993048668,-0.17104226350784302,0.03420845419168472
1750064041805095000,20.139094970703123,0.04642575979232788,-0.1270599663257599,0.029932396486401558
1750064041829020700,20.163020751953123,0.0024434609804302454,-0.06841690838336945,0.014049900695681572
1750064041845012000,20.179011962890623,-0.028099801391363144,-0.04153883829712868,0
1750064041861003300,20.195003173828123,-0.04703662544488907,-0.024434609338641167,-0.015882495790719986
1750064041876994300,20.210994384765623,-0.06658431142568588,-0.01160643994808197,-0.02015855349600315
1750064041892985600,20.226985595703123,-0.07880161702632904,0.0012217304902151227,-0.012217304669320583
1750064041908946200,20.2429462890625,-0.08185594528913498,0.015271631069481373,-0.0012217304902151227
