time,seconds_elapsed,z,y,x
1750064021803122700,0.137122802734375,7.3693528175354,6.517016887664795,0.13168109953403473
1750064021819053000,0.153052978515625,7.371747016906738,6.473921298980713,0.15562310814857483
1750064021835074600,0.169074462890625,7.462726593017578,6.445190906524658,0.20350714027881622
1750064021851005000,0.1850048828125,7.46033239364624,6.36378812789917,0.2537853717803955
1750064021867026700,0.201026611328125,7.536946773529053,6.380547523498535,0.21787235140800476
1750064021883017700,0.217017822265625,7.580042362213135,6.4834980964660645,0.13407529890537262
1750064021922995700,0.25699560546875,7.615955829620361,6.349422931671143,0.08619125932455063
1750064021938926000,0.272926025390625,7.565677165985107,6.370970726013184,0.028730420395731926
1750064021954886700,0.28888671875,7.6351094245910645,6.435614109039307,0.05506663769483566
1750064021970847500,0.304847412109375,7.608773231506348,6.447585105895996,0.24420857429504395
1750064021986808000,0.32080810546875,7.572859764099121,6.423643112182617,0.3471592366695404
1750064022002829800,0.336829833984375,7.469909191131592,6.428431510925293,0.22505496442317963
1750064022018790400,0.352790283203125,7.486668586730957,6.428431510925293,0.1388636976480484
1750064022034751200,0.368751220703125,7.910442352294922,6.3973069190979,0.2322375625371933
1750064022058707500,0.39270751953125,8.192957878112793,6.289567947387695,0.2777273952960968
1750064022074668300,0.408668212890625,7.891288757324219,6.3063273429870605,0.2106897532939911
1750064022090659300,0.424659423828125,7.5632829666137695,6.399701118469238,0.13168109953403473
1750064022106589400,0.44058935546875,7.400477409362793,6.445190906524658,0.05267243832349777
1750064022122580700,0.456580810546875,7.448361396789551,6.478709697723389,0.028730420395731926
1750064022146598100,0.48059814453125,7.462726593017578,6.44279670715332,0.08379705995321274
1750064022170554400,0.504554443359375,7.422025203704834,6.426037311553955,0.23942017555236816
1750064022194510600,0.528510498046875,7.709329605102539,6.473921298980713,0.26815059781074524
1750064022210502000,0.544501953125,7.841010570526123,6.390124320983887,0.2753331959247589
1750064022234458000,0.5684580078125,7.781155586242676,6.452373504638672,0.304063618183136
1750064022250419000,0.5844189453125,7.47230339050293,6.528987884521484,0.3519476354122162
1750064022266379500,0.600379638671875,7.225700855255127,6.593631267547607,0.31842881441116333
1750064022282401300,0.6164013671875,7.2113356590271,6.5912370681762695,0.2992752194404602
1750064022298331400,0.632331298828125,7.2137298583984375,6.550535678863525,0.272938996553421
1750064022314322700,0.64832275390625,7.204153060913086,6.54574728012085,0.24899697303771973
1750064022330283500,0.664283447265625,7.101202011108398,6.5912370681762695,0.2059013396501541
1750064022346274600,0.680274658203125,7.046135425567627,6.63433313369751,0.181959331035614
1750064022370169900,0.704169921875,7.146692276000977,6.57926607131958,0.08858546614646912
1750064022386130700,0.720130615234375,7.216124057769775,6.564900875091553,0.05027823522686958
1750064022402121700,0.736121826171875,7.2352776527404785,6.567295074462891,0.0454898327589035
1750064022418082600,0.75208251953125,7.132327079772949,6.586448669433594,0.021547814831137657
1750064022434043100,0.768043212890625,7.15387487411499,6.598419666290283,0.040701430290937424
1750064022450004000,0.78400390625,7.273584842681885,6.562506675720215,0.08619125932455063
1750064022465995000,0.7999951171875,7.527369976043701,6.531382083892822,0.15562310814857483
1750064022481925400,0.81592529296875,7.716512203216553,6.473921298980713,0.10534487664699554
1750064022497916400,0.83191650390625,7.6351094245910645,6.457161903381348,0.07661445438861847
1750064022513877200,0.847877197265625,7.316680431365967,6.481103897094727,0.05506663769483566
1750064022529837800,0.863837890625,7.046135425567627,6.5265936851501465,-0.035913024097681046
1750064022545829000,0.8798291015625,7.0317702293396,6.502651691436768,-0.021547814831137657
1750064022561820200,0.895820068359375,7.254431247711182,6.4595561027526855,0.06224924325942993
1750064022577811500,0.9118115234375,7.371747016906738,6.418854713439941,0.016759412363171577
1750064022593802800,0.927802734375,7.3669586181640625,6.402095317840576,-0.07422025501728058
1750064022609793800,0.943793701171875,7.268796443939209,6.4380083084106445,-0.15562310814857483
1750064022625754600,0.959754638671875,7.216124057769775,6.50025749206543,-0.06464344263076782
1750064022641776400,0.9757763671875,7.232883453369141,6.598419666290283,-0.026336219161748886
1750064022657767400,0.991767333984375,7.352593421936035,6.600813865661621,-0.05267243832349777
1750064022673728300,1.007728271484375,7.445967197418213,6.538564682006836,0.009576806798577309
1750064022689688800,1.023688720703125,7.546523571014404,6.550535678863525,0.07900865375995636
1750064022705680100,1.03968017578125,7.7213006019592285,6.5696892738342285,0.24899697303771973
1750064022721641000,1.055640869140625,7.90086555480957,6.562506675720215,0.4189853072166443
1750064022737632000,1.071632080078125,8.1139497756958,6.493074893951416,0.5434837937355042
1750064022753592800,1.0875927734375,8.305485725402832,6.497863292694092,0.5578489899635315
1750064022769583900,1.103583984375,8.279149055480957,6.471527099609375,0.3663128614425659
1750064022785605600,1.119605712890625,7.994239330291748,6.445190906524658,0.1364694982767105
1750064022801566500,1.13556640625,7.627926826477051,6.435614109039307,0.031124621629714966
1750064022817557500,1.1515576171875,7.350199222564697,6.449979305267334,0
1750064022833518300,1.167518310546875,7.299921035766602,6.4380083084106445,0.07661445438861847
1750064022849479000,1.18347900390625,7.386112213134766,6.418854713439941,0.12210428714752197
1750064022865470200,1.19947021484375,7.5201873779296875,6.390124320983887,0.11971008777618408
1750064022881461500,1.21546142578125,7.433996200561523,6.344634532928467,0.17477671802043915
1750064022897452500,1.23145263671875,7.261613845825195,6.327875137329102,0.18914192914962769
1750064022913443800,1.24744384765625,7.0988078117370605,6.342240333557129,0.10534487664699554
1750064022929435100,1.26343505859375,7.043741226196289,6.294356346130371,0.035913024097681046
1750064022945395700,1.279395751953125,7.110779285430908,6.248866558074951,-0.033518824726343155
1750064022961417500,1.29541748046875,7.220912456512451,6.236895561218262,-0.026336219161748886
1750064022977347600,1.31134765625,7.422025203704834,6.222530364990234,-0.035913024097681046
1750064022993339000,1.3273388671875,7.627926826477051,6.1530985832214355,-0.014365210197865963
1750064023009330000,1.343329833984375,7.785943984985352,6.155492782592773,-0.038307227194309235
1750064023025290800,1.359290771484375,7.752425193786621,6.14831018447876,-0.023942016065120697
1750064023041312500,1.3753125,7.546523571014404,6.167463779449463,0.031124621629714966
1750064023057242600,1.39124267578125,7.532158374786377,6.2201361656188965,0.05985504388809204
1750064023073203500,1.407203369140625,7.687781810760498,6.244078159332275,0.2106897532939911
1750064023089194500,1.423194580078125,7.8314337730407715,6.203376770019531,0.2106897532939911
1750064023105185800,1.439185791015625,7.812280178070068,6.169857978820801,0.19871874153614044
1750064023121146400,1.455146484375,7.836222171783447,6.189011573791504,0.22266076505184174
1750064023137107200,1.471107177734375,7.733271598815918,6.222530364990234,0.2513911724090576
1750064023161063400,1.4950634765625,7.876923561096191,6.174646377563477,0.181959331035614
1750064023177054700,1.5110546875,7.943961143493652,6.186617374420166,0.12689268589019775
1750064023201041400,1.53504150390625,7.987056732177734,6.138733386993408,0.035913024097681046
1750064023224936700,1.558936767578125,7.960720539093018,6.074089527130127,-0.023942016065120697
1750064023240897500,1.5748974609375,8.070854187011719,6.016628742218018,0.05267243832349777
1750064023256919000,1.5909189453125,8.154650688171387,6.023811340332031,0.040701430290937424
1750064023272879900,1.6068798828125,8.367734909057617,6.021417140960693,0.0694318488240242
1750064023296836000,1.630836181640625,8.415618896484375,5.959167957305908,0.15083470940589905
1750064023312797000,1.646796875,8.29590892791748,5.947196960449219,0.05746084079146385
1750064023328788000,1.6627880859375,8.042123794555664,5.983109951019287,0.021547814831137657
1750064023352744400,1.686744384765625,7.843404769897461,6.229712963104248,-0.09816227108240128
1750064023368705000,1.702705078125,7.587224960327148,6.081272125244141,0.11252748221158981
1750064023384665900,1.718665771484375,7.6997528076171875,5.851428985595703,0.05027823522686958
1750064023400687400,1.734687255859375,7.829039573669434,5.92325496673584,-0.021547814831137657
1750064023416617700,1.75061767578125,7.817068576812744,6.016628742218018,-0.021547814831137657
1750064023432578300,1.766578369140625,7.6782050132751465,6.095637321472168,0.0694318488240242
1750064023448539100,1.7825390625,7.706935405731201,6.098031520843506,0.22266076505184174
1750064023464499700,1.798499755859375,7.8529815673828125,5.980715751647949,0.3902548849582672
1750064023480521500,1.814521484375,7.864952564239502,5.947196960449219,0.2992752194404602
1750064023496451600,1.83045166015625,7.879317760467529,5.983109951019287,-0.0071826050989329815
1750064023512412400,1.846412353515625,7.86734676361084,5.992686748504639,-0.16759411990642548
1750064023528373000,1.862373046875,7.848193168640137,5.987898349761963,-0.14604631066322327
1750064023544364300,1.8783642578125,7.807491779327393,6.026205539703369,-0.1412578970193863
1750064023560324900,1.894324951171875,7.436390399932861,6.270414352416992,0.043095629662275314
1750064023576316200,1.910316162109375,7.216124057769775,6.323086738586426,0.090979665517807
1750064023592276700,1.92627685546875,7.220912456512451,6.22731876373291,-0.023942016065120697
1750064023608237600,1.942237548828125,7.5201873779296875,6.102819919586182,-0.16759411990642548
1750064023624228600,1.958228515625,7.850587368011475,6.081272125244141,-0.1604115068912506
1750064023640189400,1.974189453125,7.9631147384643555,6.0836663246154785,0.021547814831137657
1750064023656180700,1.9901806640625,7.872135162353516,6.124367713928223,0.1604115068912506
1750064023672141300,2.006141357421875,7.86734676361084,6.14831018447876,0.12449848651885986
1750064023688102000,2.022101806640625,7.872135162353516,6.1267619132995605,0.090979665517807
1750064023704062700,2.038062744140625,7.747636795043945,6.150704383850098,0.1364694982767105
1750064023720054000,2.054053955078125,7.527369976043701,6.184223175048828,0.05506663769483566
1750064023736045000,2.070045166015625,7.275979042053223,6.208165168762207,-0.07661445438861847
1750064023752036400,2.086036376953125,7.208941459655762,6.18182897567749,-0.11013327538967133
1750064023768027600,2.102027587890625,7.374141216278076,6.13633918762207,-0.15083470940589905
1750064023784049400,2.11804931640625,7.637503623962402,6.074089527130127,-0.0694318488240242
1750064023800040400,2.13404052734375,7.747636795043945,6.035782337188721,0.016759412363171577
1750064023816031700,2.15003173828125,7.738059997558594,6.081272125244141,-0.05746084079146385
1750064023832023000,2.16602294921875,7.673416614532471,6.052541732788086,-0.21547815203666687
1750064023848014000,2.18201416015625,7.65186882019043,6.069301128387451,-0.3902548849582672
1750064023863975000,2.197974853515625,7.706935405731201,6.078877925872803,-0.3758896589279175
1750064023879996700,2.21399658203125,7.706935405731201,6.030993938446045,-0.2777273952960968
1750064023895957200,2.229957275390625,7.618350028991699,6.00226354598999,-0.16759411990642548
1750064023911917800,2.245917724609375,7.632715225219727,6.0597243309021,-0.1628057211637497
1750064023927878700,2.261878662109375,7.778761386871338,6.035782337188721,-0.17477671802043915
1750064023943870000,2.277869873046875,7.951143741607666,6.007051944732666,-0.15801730751991272
1750064023959861000,2.293861083984375,7.9631147384643555,6.042964935302734,-0.19153612852096558
1750064023975852300,2.309852294921875,7.738059997558594,6.074089527130127,-0.16998831927776337
1750064023991843600,2.325843505859375,7.376535415649414,6.102819919586182,-0.22505496442317963
1750064024007804200,2.34180419921875,7.206547260284424,6.1530985832214355,-0.19393034279346466
1750064024023764700,2.3577646484375,7.398083209991455,6.234501361846924,0.09576806426048279
1750064024039786500,2.373786376953125,7.508216381072998,6.19379997253418,0.3471592366695404
1750064024055747300,2.389747314453125,7.400477409362793,6.074089527130127,0.09576806426048279
1750064024071708000,2.4057080078125,7.309497833251953,6.038176536560059,-0.26096799969673157
1750064024087668700,2.421668701171875,6.732495307922363,5.810727596282959,-0.40462008118629456
1750064024103659800,2.43765966796875,6.845022678375244,5.74129581451416,-0.7757213711738586
1750064024119651000,2.453651123046875,7.4316020011901855,5.659893035888672,-1.2042834758758545
1750064024135642400,2.469642333984375,8.152256965637207,5.298368453979492,-0.8355764150619507
1750064024151603000,2.48560302734375,8.736441612243652,5.125985622406006,-0.790086567401886
1750064024167563800,2.501563720703125,8.96389102935791,5.377377033233643,-1.1228805780410767
1750064024183585500,2.51758544921875,8.880094528198242,5.499481201171875,-1.0654197931289673
1750064024199515600,2.533515625,8.480262756347656,5.449203014373779,-0.8930372595787048
1750064024215476200,2.549476318359375,8.006210327148438,5.406107425689697,-0.8810662031173706
1750064024231437000,2.56543701171875,7.704541206359863,5.530605792999268,-0.9600749015808105
1750064024247397600,2.581397705078125,7.8529815673828125,5.626373767852783,-0.933738648891449
1750064024263419400,2.59741943359375,7.881711959838867,5.640739440917969,-0.8451532125473022
1750064024279410700,2.61341064453125,7.857769966125488,5.671864032745361,-0.730231523513794
1750064024295401700,2.629401611328125,7.922413349151611,5.817910194396973,-0.47644615173339844
1750064024311393000,2.64539306640625,7.654263019561768,5.841852188110352,-0.4692635238170624
1750064024327384300,2.66138427734375,7.632715225219727,5.913678169250488,-0.871489405632019
1750064024343375400,2.677375244140625,7.680599212646484,5.901707172393799,-0.8858546018600464
1750064024359336200,2.693336181640625,7.690176010131836,5.765237808227539,-0.7374141216278076
1750064024383384000,2.717384033203125,7.575253963470459,5.714959621429443,-0.8643068075180054
1750064024399375000,2.733375,7.6111674308776855,5.669469833374023,-0.8619126081466675
1750064024415366400,2.749366455078125,7.745242595672607,5.671864032745361,-0.7254431247711182
1750064024431357700,2.765357666015625,7.850587368011475,5.700594425201416,-0.5410895943641663
1750064024447348700,2.7813486328125,7.7883381843566895,5.770026206970215,-0.44771572947502136
1750064024463340000,2.797340087890625,7.558494567871094,5.796362400054932,-0.45010992884635925
1750064024479270100,2.813270263671875,7.340622425079346,5.827486991882324,-0.4692635238170624
1750064024495261400,2.829261474609375,7.122750282287598,5.839457988739014,-0.5339069962501526
1750064024511222000,2.845221923828125,6.799532890319824,5.901707172393799,-0.5099649429321289
1750064024527152400,2.86115234375,5.940014362335205,5.8442463874816895,-0.13407529890537262
1750064024543052000,2.877052001953125,4.908113479614258,5.858611583709717,0.38067805767059326
1750064024559012600,2.8930126953125,5.600037574768066,4.975151062011719,0.09816227108240128
1750064024575004000,2.90900390625,4.448426723480225,6.035782337188721,-1.9177556037902832
1750064024590964500,2.924964599609375,5.758055210113525,5.65031623840332,-4.307168960571289
1750064024606894800,2.940894775390625,6.761225700378418,4.402936935424805,-3.1076738834381104
1750064024622886000,2.956885986328125,7.508216381072998,4.134786128997803,-2.63362193107605
1750064024638877200,2.972877197265625,8.300697326660156,3.804386615753174,-2.185906171798706
1750064024654868500,2.988868408203125,8.851364135742188,3.73016619682312,-1.86508309841156
1750064024670829000,3.0048291015625,10.029311180114746,4.213795185089111,-2.676717519760132
1750064024686850800,3.020850830078125,12.140996932983398,2.9735984802246094,-3.337517261505127
1750064024702811400,3.036811279296875,11.250353813171387,2.403778553009033,-3.1100680828094482
1750064024718772200,3.052772216796875,11.537657737731934,1.843535304069519,-3.936067581176758
1750064024734732800,3.06873291015625,11.78904914855957,2.449268341064453,-3.5051112174987793
1750064024750724000,3.08472412109375,11.401188850402832,3.138798475265503,-3.114856481552124
1750064024766684700,3.1006845703125,9.461885452270508,3.555389642715454,-2.2409727573394775
1750064024782676000,3.116676025390625,6.62236213684082,3.909731388092041,-1.0558429956436157
1750064024798697700,3.13269775390625,5.22175407409668,3.9600095748901367,-0.6847416758537292
1750064024814627800,3.1486279296875,5.7987565994262695,4.541800498962402,-1.0773907899856567
1750064024830588700,3.164588623046875,6.160281181335449,5.003881454467773,-2.0661959648132324
1750064024846579700,3.180579833984375,6.406883716583252,3.890577793121338,-2.8802247047424316
1750064024862540500,3.19654052734375,7.486668586730957,3.5386300086975098,-2.2697031497955322
1750064024878562300,3.212562255859375,8.980650901794434,3.4548330307006836,-3.643975019454956
1750064024910514200,3.24451416015625,9.229647636413574,3.3734302520751953,-2.363077163696289
1750064024926474800,3.260474853515625,8.588001251220703,3.2417490482330322,-1.8794482946395874
1750064024942374400,3.27637451171875,7.4316020011901855,3.5673606395721436,-2.7102363109588623
1750064024958335200,3.292335205078125,6.074089527130127,3.2800562381744385,-1.944091796875
1750064024974326300,3.308326171875,8.935160636901855,4.261679172515869,-0.9385270476341248
1750064024990287000,3.324287109375,10.218452453613281,4.795586109161377,-0.10295066982507706
1750064025006278400,3.3402783203125,10.146626472473145,4.086902141571045,1.0462661981582642
1750064025022208500,3.35620849609375,8.415618896484375,3.581725835800171,1.7118542194366455
1750064025038230300,3.372230224609375,6.715735912322998,3.4189200401306152,0.37828385829925537
1750064025054221300,3.38822119140625,6.555324077606201,3.8307228088378906,-0.40701428055763245
1750064025070182100,3.40418212890625,7.134721279144287,4.2975921630859375,-2.801215887069702
1750064025094199600,3.428199462890625,7.503427982330322,4.376600742340088,-2.276885747909546
1750064025110129700,3.444129638671875,9.390059471130371,3.28963303565979,-1.338358759880066
1750064025126059800,3.460059814453125,6.430825710296631,3.6176388263702393,2.6839001178741455
1750064025142051000,3.476051025390625,4.857835292816162,3.8331170082092285,1.8579005002975464
1750064025158072800,3.49207275390625,5.386953830718994,3.5458126068115234,0.272938996553421
1750064025174003000,3.5080029296875,5.118803024291992,2.31758713722229,0.19871874153614044
1750064025189994000,3.523993896484375,5.872976779937744,2.049436569213867,0.871489405632019
1750064025205985300,3.5399853515625,5.884947776794434,1.601720929145813,1.3623007535934448
1750064025221946000,3.555946044921875,4.809951305389404,1.2258312702178955,0.17717093229293823
1750064025237967600,3.571967529296875,3.627215623855591,0.5482721924781799,-1.2114660739898682
1750064025253959000,3.587958984375,3.1938650608062744,-0.24899697303771973,-1.1803414821624756
1750064025269919700,3.603919677734375,2.255337953567505,-0.49320554733276367,-0.5291185975074768
1750064025285880300,3.61988037109375,1.965639591217041,-0.8403648138046265,0.7158663272857666
1750064025301871600,3.63587158203125,2.6431987285614014,-1.3335703611373901,0.4884171485900879
1750064025317862700,3.651862548828125,1.070208191871643,-1.7836803197860718,0.6703764796257019
1750064025333823500,3.667823486328125,-1.070208191871643,-4.371812343597412,4.8937482833862305
1750064025349753600,3.683753662109375,-1.7166426181793213,-2.1164743900299072,3.840299606323242
1750064025365745000,3.699744873046875,-1.778891921043396,-3.4596214294433594,5.882553577423096
1750064025381675000,3.715675048828125,-0.950498104095459,-5.676652431488037,7.987056732177734
1750064025397696800,3.73169677734375,3.138798475265503,-5.262455463409424,7.975085735321045
1750064025413688000,3.74768798828125,5.0685248374938965,-5.674258232116699,6.72531270980835
1750064025429679000,3.76367919921875,2.3965959548950195,-6.761225700378418,7.838616371154785
1750064025453604900,3.78760498046875,0.28730419278144836,-7.805097579956055,10.426748275756836
1750064025469565700,3.803565673828125,2.4684219360351562,-8.276755332946777,13.120224952697754
1750064025485556700,3.819556640625,5.372588634490967,-9.10993766784668,14.724340438842773
1750064025501517600,3.835517578125,6.102819919586182,-9.6989107131958,15.533580780029297
1750064025517478100,3.85147802734375,4.532223701477051,-9.6989107131958,15.401899337768555
1750064025533469400,3.867469482421875,1.7501614093780518,-9.639056205749512,14.4226713180542
1750064025549460700,3.883460693359375,-0.507570743560791,-9.794678688049316,14.882357597351074
1750064025565421300,3.89942138671875,-1.3838485479354858,-10.014945983886719,17.350780487060547
1750064025581412600,3.91541259765625,-1.647210717201233,-9.976638793945312,18.53830337524414
1750064025597434400,3.931434326171875,-0.5746083855628967,-9.880870819091797,18.521543502807617
1750064025621421000,3.955421142578125,1.9943699836730957,-10.072406768798828,17.832014083862305
1750064025637382000,3.9713818359375,4.003105163574219,-9.849745750427246,16.45534896850586
1750064025661376300,3.995376220703125,5.477933406829834,-8.425195693969727,12.923900604248047
1750064025677398000,4.01139794921875,3.069366693496704,-8.456320762634277,12.404358863830566
1750064025701293300,4.035293212890625,1.0319008827209473,-8.26478385925293,10.94150161743164
1750064025717315000,4.051315185546875,1.0271124839782715,-8.288725852966309,8.951920509338379
1750064025733245200,4.0672451171875,2.051830768585205,-8.69334602355957,8.10437297821045
1750064025749205800,4.083205810546875,2.851494312286377,-8.920795440673828,7.544129371643066
1750064025765197000,4.099197021484375,3.002328872680664,-8.877699851989746,7.19936466217041
1750064025781188400,4.115188232421875,2.9712042808532715,-9.009381294250488,7.050923824310303
1750064025797118500,4.131118408203125,2.248155355453491,-9.157821655273438,6.825869083404541
1750064025813079000,4.1470791015625,2.2864625453948975,-9.564835548400879,5.70777702331543
1750064025829039900,4.163039794921875,1.946485996246338,-9.157821655273438,4.393360137939453
1750064025845000400,4.17900048828125,1.2473790645599365,-9.334992408752441,3.8810009956359863
1750064025860991700,4.19499169921875,0.6488286852836609,-9.646238327026367,4.041412353515625
1750064025876983000,4.210983154296875,1.0845733880996704,-9.543288230895996,3.821146011352539
1750064025892943600,4.226943603515625,2.008735179901123,-9.169792175292969,3.9384617805480957
1750064025917022000,4.25102197265625,2.078166961669922,-9.406818389892578,3.6296098232269287
1750064025933013200,4.26701318359375,2.5737667083740234,-8.774748802185059,4.220977783203125
1750064025956847400,4.290847412109375,3.1316158771514893,-8.161833763122559,6.514622688293457
1750064025972869000,4.306869140625,2.7916390895843506,-7.220912456512451,7.084442615509033
1750064025988768800,4.322768798828125,1.599326729774475,-6.469132900238037,7.608773231506348
1750064026004699000,4.338698974609375,2.853888511657715,-5.736507415771484,9.167398452758789
1750064026020690200,4.354690185546875,2.6575639247894287,-5.0876784324646,10.505757331848145
1750064026036651000,4.370651123046875,0.7350199222564697,-5.0014872550964355,9.734824180603027
1750064026052581000,4.3865810546875,0.5650315880775452,-5.688623428344727,7.881711959838867
1750064026068541700,4.402541748046875,1.434126853942871,-6.2392897605896,7.309497833251953
1750064026084502500,4.41850244140625,4.833893299102783,-5.743690013885498,8.209717750549316
1750064026100493600,4.43449365234375,4.292803764343262,-5.305551052093506,7.331045627593994
1750064026116515300,4.450515380859375,2.406172752380371,-5.8442463874816895,8.432378768920898
1750064026132445700,4.46644580078125,5.003881454467773,-5.559336185455322,6.988674640655518
1750064026148436700,4.482436767578125,4.376600742340088,-4.821922302246094,3.97916316986084
1750064026164458500,4.49845849609375,4.371812343597412,-4.764461517333984,2.032677173614502
1750064026180449800,4.51444970703125,2.3295583724975586,-3.177105665206909,5.705382823944092
1750064026196410400,4.530410400390625,3.7397429943084717,-0.26096799969673157,8.789113998413086
1750064026212340500,4.546340576171875,4.527435302734375,-0.2059013396501541,4.994304656982422
1750064026228331800,4.562331787109375,3.7158010005950928,-1.434126853942871,3.136404275894165
1750064026244323000,4.578322998046875,1.4844050407409668,-0.16519992053508759,8.497021675109863
1750064026268279300,4.602279296875,-2.056619167327881,-0.569819986820221,9.026140213012695
1750064026284240100,4.618240234375,0.3495534360408783,-0.7326257228851318,6.720524311065674
1750064026308196400,4.6421962890625,-1.4101848602294922,-0.4668693244457245,8.889671325683594
1750064026324157000,4.658156982421875,2.691082715988159,3.3279404640197754,8.38688850402832
1750064026340117800,4.67411767578125,1.824381709098816,0.33039984107017517,5.643133640289307
1750064026364043500,4.69804345703125,-0.5003881454467773,-2.013523578643799,8.248024940490723
1750064026379973600,4.7139736328125,0.33518823981285095,-2.3511061668395996,11.470620155334473
1750064026395903700,4.72990380859375,1.656787633895874,-3.9839515686035156,12.073959350585938
1750064026411895000,4.74589501953125,0.0454898327589035,-3.9384617805480957,7.3885064125061035
1750064026427855600,4.761855712890625,-0.4572925269603729,-1.946485996246338,3.0406360626220703
1750064026443816400,4.77781640625,-0.31364041566848755,-5.647922039031982,4.771644115447998
1750064026459807700,4.793807861328125,-0.6248866319656372,-4.460397720336914,7.682993412017822
1750064026475798800,4.809798828125,-1.1204863786697388,-5.406107425689697,10.577583312988281
1750064026491759600,4.825759521484375,-1.3287819623947144,-4.944026470184326,12.155362129211426
1750064026507720200,4.84172021484375,-0.12210428714752197,-4.517858505249023,14.640542984008789
1750064026523681000,4.857680908203125,-0.12689268589019775,-5.623979568481445,15.811307907104492
1750064026539641600,4.8736416015625,1.5275006294250488,-5.614402770996094,12.0021333694458
1750064026555602400,4.8896025390625,3.1962592601776123,-2.1045033931732178,7.620744228363037
1750064026579589000,4.913589111328125,0.646434485912323,-4.048594951629639,7.814674377441406
1750064026595550000,4.929550048828125,0.7038952708244324,-3.2585084438323975,4.955997467041016
1750064026611541000,4.945541015625,1.072602391242981,-7.448361396789551,3.4524388313293457
1750064026635528000,4.96952783203125,5.779603004455566,-7.613561630249023,3.4979286193847656
1750064026659514600,4.9935146484375,5.453991413116455,-9.332598686218262,12.15296745300293
1750064026699462100,5.033462158203125,2.3774423599243164,-4.28322696685791,15.385140419006348
1750064026715453400,5.049453369140625,4.079719543457031,-4.261679172515869,16.974889755249023
1750064026731444700,5.06544482421875,0.3280056416988373,-3.7445313930511475,11.892000198364258
1750064026747435800,5.081435791015625,-0.2513911724090576,-2.779668092727661,9.78989028930664
1750064026763396600,5.097396728515625,0.7469909191131592,-1.6615760326385498,11.51850414276123
1750064026779357200,5.113357177734375,2.212242364883423,-0.6799532771110535,16.124948501586914
1750064026795287300,5.129287353515625,1.4173674583435059,0.3016694188117981,15.126565933227539
1750064026819274200,5.153274169921875,-0.5147533416748047,-0.2106897532939911,13.752294540405273
1750064026835204400,5.169204345703125,3.138798475265503,1.1492167711257935,12.05959415435791
1750064026851256600,5.185256591796875,0.45010992884635925,0.4836287498474121,8.810662269592285
1750064026867217400,5.201217529296875,-1.6831238269805908,1.1085153818130493,4.4939165115356445
1750064026883178000,5.217177978515625,-1.5969325304031372,-0.040701430290937424,1.7142484188079834
1750064026899169300,5.233169189453125,-1.0558429956436157,-5.0685248374938965,-0.6584054827690125
1750064026923186400,5.2571865234375,-1.4269442558288574,-10.402806282043457,4.127603530883789
1750064026939177700,5.273177734375,6.100425720214844,-10.539276123046875,12.22000503540039
1750064026955169000,5.2891689453125,3.7852327823638916,-1.922544002532959,10.096348762512207
1750064026971160000,5.30516015625,0.7924807667732239,-3.375824451446533,5.861005783081055
1750064026987121000,5.321120849609375,1.534683346748352,4.4723687171936035,4.572925090789795
1750064027003081500,5.33708154296875,-3.3303346633911133,6.196194171905518,-0.21787235140800476
1750064027019103200,5.353103271484375,-1.1851298809051514,0.035913024097681046,11.013327598571777
1750064027035064000,5.36906396484375,0.05267243832349777,2.0829553604125977,11.872846603393555
1750064027051055000,5.38505517578125,0.9385270476341248,0.7996633648872375,14.369998931884766
1750064027067016000,5.401015869140625,1.4676456451416016,2.5474305152893066,12.224793434143066
1750064027083007200,5.41700732421875,1.525106430053711,0.2298433631658554,9.983820915222168
1750064027098967800,5.4329677734375,2.4588451385498047,0.4213795065879822,9.258378028869629
1750064027114898000,5.44889794921875,1.3120225667953491,1.4652514457702637,13.30457878112793
1750064027130950100,5.4649501953125,-0.26575639843940735,-1.9129672050476074,10.132261276245117
1750064027146911000,5.480910888671875,0.7972691655158997,-4.050989151000977,9.488221168518066
1750064027162871600,5.49687158203125,0.05506663769483566,-4.4077253341674805,8.688557624816895
1750064027178862800,5.51286279296875,0.4692635238170624,-5.748478412628174,9.327810287475586
1750064027194793000,5.52879296875,0.5889736413955688,-5.494692802429199,8.561665534973145
1750064027210814700,5.544814697265625,0.6416460275650024,-4.402936935424805,8.820239067077637
1750064027226775300,5.560775390625,-0.11971008777618408,-3.361459255218506,7.95832633972168
1750064027242705700,5.57670556640625,-0.6631938815116882,-2.6575639247894287,8.279149055480957
1750064027258696700,5.59269677734375,0.5410895943641663,-3.220201253890991,7.745242595672607
1750064027282592000,5.616592041015625,-1.0821791887283325,-6.651092529296875,3.5218706130981445
1750064027298583300,5.632583251953125,-1.941697597503662,-8.336610794067383,12.500126838684082
1750064027314574600,5.64857470703125,1.8914192914962769,-5.679046630859375,10.572794914245605
1750064027330535200,5.66453515625,0.19632454216480255,-5.207388877868652,13.42668342590332
1750064027346496000,5.68049609375,-2.80361008644104,-3.8067808151245117,8.700529098510742
1750064027362517500,5.696517578125,-1.2856862545013428,-7.362170219421387,9.667786598205566
1750064027378508800,5.7125087890625,5.614402770996094,-5.540182590484619,14.269442558288574
1750064027394439000,5.72843896484375,4.675876140594482,-4.99669885635376,14.027627944946289
1750064027410399700,5.744399658203125,-0.4405331015586853,-5.339069843292236,13.201627731323242
1750064027426360300,5.7603603515625,-0.033518824726343155,-8.846575736999512,5.4228668212890625
1750064027442382000,5.776382080078125,-1.2952631711959839,-9.224859237670898,5.51624059677124
1750064027458373400,5.792373291015625,0.8092401623725891,-5.954379558563232,7.474697589874268
1750064027474364400,5.808364501953125,-0.7254431247711182,-6.1052141189575195,9.014169692993164
1750064027490355700,5.824355712890625,-0.22505496442317963,-5.995080947875977,9.119514465332031
1750064027506285800,5.840285888671875,-0.5386953949928284,-5.365406036376953,9.38048267364502
1750064027522307600,5.8563076171875,-2.31758713722229,-5.942408561706543,4.941632270812988
1750064027538268400,5.872268310546875,-0.2777273952960968,-7.0557122230529785,6.332663536071777
1750064027554198500,5.888198486328125,1.3407529592514038,-6.775590896606445,7.264008045196533
1750064027570220300,5.90422021484375,0.7326257228851318,-5.87776517868042,5.863399982452393
1750064027586180900,5.920180908203125,1.0223240852355957,-5.305551052093506,4.876988887786865
1750064027602172200,5.936172119140625,0.4141969084739685,-5.032611846923828,5.080495834350586
1750064027618163500,5.95216357421875,-0.040701430290937424,-5.7125654220581055,4.733336925506592
1750064027634154500,5.968154541015625,0.49320554733276367,-6.22731876373291,4.405331134796143
1750064027650115300,5.984115234375,0.751779317855835,-4.819528102874756,1.7094600200653076
1750064027666076000,6.000075927734375,0.6248866319656372,-4.63517427444458,1.2665326595306396
1750064027682006000,6.016006103515625,1.2545616626739502,-6.102819919586182,1.2856862545013428
1750064027697997300,6.031997314453125,1.1659762859344482,-7.623138427734375,1.8986018896102905
1750064027714019000,6.04801904296875,1.8339585065841675,-8.62630844116211,2.1978771686553955
1750064027729949200,6.06394921875,3.318363666534424,-9.35893440246582,2.1739351749420166
1750064027745940500,6.0799404296875,0.12689268589019775,-10.529699325561523,5.197812080383301
1750064027761962200,6.095962158203125,-8.063671112060547,-11.580753326416016,5.135562419891357
1750064027777922800,6.1119228515625,-12.94305419921875,-12.081141471862793,-0.011971008032560349
1750064027793944600,6.127944580078125,-6.854599475860596,-12.854469299316406,-1.1300631761550903
1750064027809874700,6.143874755859375,-2.382230758666992,-12.990938186645508,1.5466543436050415
1750064027825866000,6.159865966796875,-0.16998831927776337,-13.496114730834961,3.687070608139038
1750064027841887700,6.1758876953125,0.6751648783683777,-12.880805015563965,6.349422931671143
1750064027857879000,6.191879150390625,1.2210428714752197,-12.844892501831055,6.138733386993408
1750064027873839600,6.207839599609375,0.8355764150619507,-11.130643844604492,1.4748282432556152
1750064027889861400,6.223861328125,-1.8746598958969116,-9.133879661560059,-1.800439715385437
1750064027905822000,6.239822021484375,-2.559401512145996,-8.559270858764648,-1.434126853942871
1750064027921813200,6.255813232421875,-1.6400281190872192,-9.411606788635254,-0.31364041566848755
1750064027937774000,6.271774169921875,-1.1348515748977661,-9.77791976928711,1.944091796875
1750064027953704200,6.2877041015625,-2.008735179901123,-9.892841339111328,2.31758713722229
1750064027969756400,6.30375634765625,-2.2409727573394775,-9.129091262817383,2.5713725090026855
1750064027985717000,6.319717041015625,-2.049436569213867,-7.615955829620361,1.8291701078414917
1750064028001647400,6.3356474609375,-2.5306711196899414,-8.604761123657227,0.7613561153411865
1750064028017638400,6.351638427734375,-1.8267759084701538,-8.49941635131836,1.4652514457702637
1750064028033660200,6.36766015625,-0.5985504388809204,-9.196128845214844,2.0159177780151367
1750064028049590300,6.38359033203125,-0.6416460275650024,-9.191340446472168,1.4867992401123047
1750064028065581600,6.39958154296875,-1.2880805730819702,-10.125079154968262,1.2521674633026123
1750064028081603300,6.415603271484375,-2.056619167327881,-9.95748519897461,0.9409212470054626
1750064028097594600,6.4315947265625,-2.032677173614502,-9.66539192199707,1.1061211824417114
1750064028113555200,6.44755517578125,-1.9081788063049316,-9.744400978088379,1.2066776752471924
1750064028129577000,6.463576904296875,-1.357512354850769,-9.406818389892578,0.629675030708313
1750064028145537500,6.47953759765625,-0.7565677165985107,-8.875306129455566,0.2944868206977844
1750064028161468000,6.495468017578125,-0.8978256583213806,-7.347805023193359,-0.48602294921875
1750064028177459000,6.511458984375,-0.9265560507774353,-8.13789176940918,-0.9528923034667969
1750064028193480700,6.527480712890625,-0.7948749661445618,-8.83699893951416,-1.158793568611145
1750064028209380400,6.54338037109375,-1.048660397529602,-9.593565940856934,-0.8523358106613159
1750064028225371600,6.55937158203125,0.1628057211637497,-8.892065048217773,1.577778935432434
1750064028241393400,6.575393310546875,-0.5267243981361389,-6.157886981964111,-3.5434184074401855
1750064028257354000,6.59135400390625,1.659181833267212,-2.5234885215759277,0.05267243832349777
1750064028273284000,6.6072841796875,1.216254472732544,-1.8076223134994507,0.4668693244457245
1750064028289305900,6.623305908203125,0.8092401623725891,-1.479616641998291,0.33518823981285095
1750064028305144600,6.63914453125,0.7350199222564697,-1.2449848651885986,0.12449848651885986
1750064028321227300,6.655227294921875,0.7350199222564697,-1.158793568611145,0.05267243832349777
1750064028337066000,6.67106591796875,0.28730419278144836,-1.1252747774124146,0.5410895943641663
1750064028353026600,6.687026611328125,0.912190854549408,-2.557007312774658,0.40940847992897034
1750064028369017900,6.703017822265625,-0.3256114423274994,-8.022970199584961,-3.2800562381744385
1750064028384978400,6.718978515625,-1.2713210582733154,-19.275718688964844,-4.41969633102417
1750064028400908800,6.73490869140625,-4.089296340942383,-30.50213050842285,-1.01753568649292
1750064028416961000,6.7509609375,-0.4836287498474121,-39.54263687133789,-1.867477297782898
1750064028432952000,6.7669521484375,4.850652694702148,-34.244266510009766,-10.709263801574707
1750064028448913000,6.782912841796875,4.841075897216797,-21.44486427307129,-9.555258750915527
1750064028464904200,6.798904296875,7.649474620819092,-8.554482460021973,-7.570465564727783
1750064028480925700,6.81492578125,5.233725070953369,-4.546588897705078,-5.037400245666504
1750064028496856000,6.83085595703125,1.113303780555725,-6.291962146759033,-1.778891921043396
1750064028512877800,6.8468779296875,-0.09576806426048279,-5.588066577911377,-0.6320692300796509
1750064028528808000,6.862807861328125,-0.730231523513794,-5.293580055236816,0.569819986820221
1750064028544799000,6.878799072265625,-0.8643068075180054,-5.7341132164001465,2.1164743900299072
1750064028560820700,6.89482080078125,-1.3287819623947144,-7.1490864753723145,1.7310078144073486
1750064028576812000,6.91081201171875,-1.501164436340332,-8.434772491455078,-0.8140285611152649
1750064028592803300,6.92680322265625,-0.9768342971801758,-9.873687744140625,-3.1723172664642334
1750064028608794400,6.94279443359375,-0.0071826050989329815,-11.54005241394043,-4.829104900360107
1750064028624785700,6.95878564453125,-0.5123591423034668,-12.763489723205566,-5.207388877868652
1750064028640777000,6.97477685546875,-3.1914708614349365,-11.96861457824707,-3.9384617805480957
1750064028656737500,6.990737548828125,-5.5760955810546875,-9.761159896850586,-2.078166961669922
1750064028672728800,7.006728759765625,-5.841852188110352,-8.307879447937012,-1.9704279899597168
1750064028688659000,7.022658935546875,-2.3942017555236816,-8.49941635131836,-2.382230758666992
1750064028704650200,7.038650146484375,-1.1444283723831177,-8.87051773071289,-2.849100112915039
1750064028720641300,7.054641357421875,-0.6871358752250671,-9.330204010009766,-2.8443117141723633
1750064028736602000,7.07060205078125,-0.28730419278144836,-9.758766174316406,-2.8155810832977295
1750064028752623900,7.086623779296875,0.06464344263076782,-9.93354320526123,-3.0119056701660156
1750064028768615000,7.102614990234375,0.35673606395721436,-9.99339771270752,-2.9927520751953125
1750064028784606200,7.118606201171875,0.6584054827690125,-9.981427192687988,-2.8562827110290527
1750064028800505900,7.134505859375,0.8978256583213806,-9.880870819091797,-2.779668092727661
1750064028816497200,7.1504970703125,1.0007762908935547,-9.6989107131958,-2.6815059185028076
1750064028832549400,7.16654931640625,0.9361328482627869,-9.617507934570312,-2.693476915359497
1750064028848479500,7.1824794921875,0.9983820915222168,-9.612719535827637,-2.5498247146606445
1750064028864470800,7.198470703125,0.9911994934082031,-9.495404243469238,-2.3774423599243164
1750064028880492500,7.214492431640625,0.9552865028381348,-9.409213066101074,-2.470816135406494
1750064028896483600,7.230483642578125,0.7110779285430908,-9.339780807495117,-2.4157495498657227
1750064028912444400,7.2464443359375,0.6344634294509888,-9.41639518737793,-2.212242364883423
1750064028928466200,7.262466064453125,0.6536170840263367,-9.466673851013184,-2.190694570541382
1750064028944426800,7.2784267578125,0.6967126727104187,-9.433155059814453,-2.387019157409668
1750064028960418000,7.29441796875,0.7445967197418213,-9.248801231384277,-2.3965959548950195
1750064028976409000,7.3104091796875,0.8212111592292786,-9.344569206237793,-2.1356279850006104
1750064028992430800,7.326430908203125,0.7254431247711182,-9.708487510681152,-2.0877439975738525
1750064029008361200,7.342361328125,0.828393816947937,-9.68694019317627,-2.583343744277954
1750064029024352300,7.358352294921875,0.5817909836769104,-9.41400146484375,-3.4165258407592773
1750064029040374000,7.3743740234375,0.768538773059845,-9.220070838928223,-2.9305028915405273
1750064029056365300,7.390365234375,0.912190854549408,-8.999804496765137,-2.7724854946136475
1750064029072326000,7.406325927734375,1.37906014919281,-8.9064302444458,-3.3494882583618164
1750064029088347600,7.42234765625,1.4628572463989258,-9.160215377807617,-3.5218706130981445
1750064029104308500,7.43830859375,0.9552865028381348,-9.361329078674316,-3.2824504375457764
1750064029120269000,7.45426904296875,0.31364041566848755,-9.706093788146973,-3.1914708614349365
1750064029136260400,7.47026025390625,-0.181959331035614,-9.828198432922363,-3.002328872680664
1750064029152282000,7.4862822265625,-0.49799394607543945,-9.751583099365234,-2.8586769104003906
1750064029168212200,7.502212158203125,-0.569819986820221,-9.66539192199707,-2.760514497756958
1750064029184203500,7.51820361328125,-0.40222588181495667,-9.524134635925293,-2.719813108444214
1750064029200225000,7.53422509765625,-0.13168109953403473,-9.41400146484375,-2.6815059185028076
1750064029216185900,7.550185791015625,-0.1173158809542656,-9.406818389892578,-2.4612393379211426
1750064029232116000,7.566115966796875,-0.33518823981285095,-9.48343276977539,-2.1954829692840576
1750064029248137700,7.5821376953125,-0.6416460275650024,-9.473855972290039,-2.185906171798706
1750064029264098300,7.598098388671875,-0.7541735172271729,-9.44991397857666,-2.1045033931732178
1750064029279998000,7.613998046875,-0.7038952708244324,-9.440337181091309,-2.248155355453491
1750064029295989200,7.6299892578125,-0.49559974670410156,-9.488221168518066,-2.3726539611816406
1750064029312041500,7.64604150390625,-0.33997663855552673,-9.63187313079834,-2.449268341064453
1750064029327971600,7.6619716796875,-0.2059013396501541,-9.68933391571045,-2.315192937850952
1750064029343963000,7.677962890625,-0.090979665517807,-9.612719535827637,-2.1164743900299072
1750064029359984600,7.693984619140625,-0.06464344263076782,-9.44991397857666,-2.1380221843719482
1750064029375976000,7.709975830078125,-0.090979665517807,-9.464279174804688,-2.0685901641845703
1750064029391906000,7.725906005859375,-0.13407529890537262,-9.639056205749512,-1.8602946996688843
1750064029407927800,7.741927734375,-0.1628057211637497,-9.706093788146973,-1.8602946996688843
1750064029423888400,7.757888427734375,-0.12210428714752197,-9.68694019317627,-1.944091796875
1750064029439818800,7.77381884765625,-0.08140286058187485,-9.605537414550781,-2.0638017654418945
1750064029455779300,7.789779296875,0.0071826050989329815,-9.461885452270508,-2.255337953567505
1750064029471801000,7.805801025390625,0.05267243832349777,-9.442731857299805,-2.4899697303771973
1750064029487792400,7.82179248046875,0.10534487664699554,-9.473855972290039,-2.671929121017456
1750064029503753000,7.8377529296875,0.19632454216480255,-9.445125579833984,-2.8874073028564453
1750064029527740000,7.861739990234375,0.395043283700943,-9.435548782348633,-3.098097085952759
1750064029543700500,7.877700439453125,0.5027823448181152,-9.406818389892578,-3.2561142444610596
1750064029559661000,7.8936611328125,0.5746083855628967,-9.402029991149902,-3.3039982318878174
1750064029575652400,7.90965234375,0.5650315880775452,-9.354146003723145,-3.2968156337738037
1750064029591582500,7.92558251953125,0.5123591423034668,-9.258378028869629,-3.3686418533325195
1750064029607573800,7.94157373046875,0.4357447028160095,-9.232041358947754,-3.5242648124694824
1750064029623534300,7.957534423828125,0.395043283700943,-9.198522567749023,-3.6822822093963623
1750064029639464700,7.973464599609375,0.42856210470199585,-9.205705642700195,-3.7397429943084717
1750064029655425300,7.98942529296875,0.524330198764801,-9.167398452758789,-3.799597978591919
1750064029671477500,8.0054775390625,0.6536170840263367,-9.162610054016113,-3.773261785507202
1750064029687468800,8.02146875,0.7182605266571045,-9.241618156433105,-3.713406801223755
1750064029703429400,8.037429443359375,0.7398083209991455,-9.258378028869629,-3.7445313930511475
1750064029719451100,8.053451171875,0.7015010714530945,-9.30386734008789,-3.6798880100250244
1750064029735412000,8.069411865234375,0.5793967843055725,-9.275136947631836,-3.471592426300049
1750064029751403000,8.085403076171875,0.4884171485900879,-9.224859237670898,-3.287238836288452
1750064029767333400,8.10133349609375,0.42616790533065796,-9.10993766784668,-3.0789434909820557
1750064029783294000,8.1172939453125,0.42377370595932007,-9.11233139038086,-2.9161376953125
1750064029799315700,8.133315673828125,0.4596867263317108,-9.32541561126709,-2.652775526046753
1750064029815307000,8.14930712890625,0.4596867263317108,-9.579200744628906,-2.3918075561523438
1750064029831267600,8.165267578125,0.3495534360408783,-9.691728591918945,-2.2242133617401123
1750064029847319800,8.18131982421875,0.17238251864910126,-9.639056205749512,-2.1140801906585693
1750064029863280600,8.19728076171875,0.043095629662275314,-9.442731857299805,-2.0183119773864746
1750064029879210800,8.213210693359375,-0.08379705995321274,-9.346963882446289,-1.9153614044189453
1750064029895202000,8.2292021484375,-0.14844051003456116,-9.349357604980469,-1.8507179021835327
1750064029911193000,8.245193115234375,-0.17717093229293823,-9.550470352172852,-2.0422539710998535
1750064029927123200,8.261123291015625,-0.16759411990642548,-9.782708168029785,-2.360682964324951
1750064029951140600,8.285140625,-0.10773907601833344,-9.744400978088379,-2.470816135406494
1750064029967132000,8.3011318359375,-0.038307227194309235,-9.44991397857666,-2.3774423599243164
1750064029991088000,8.325088134765625,0.016759412363171577,-9.299078941345215,-2.2409727573394775
1750064030007079400,8.341079345703125,-0.043095629662275314,-9.495404243469238,-2.2577321529388428
1750064030023040000,8.3570400390625,-0.1843535304069519,-9.720458984375,-2.231395959854126
1750064030039031300,8.37303125,-0.304063618183136,-9.75397777557373,-2.1595699787139893
1750064030054992000,8.388991943359375,-0.33997663855552673,-9.660603523254395,-1.9177556037902832
1750064030070922200,8.404922119140625,-0.3471592366695404,-9.516951560974121,-1.6136919260025024
1750064030086944000,8.420944091796875,-0.24899697303771973,-9.342175483703613,-1.3958195447921753
1750064030102904600,8.436904541015625,-0.272938996553421,-9.282320022583008,-1.556231141090393
1750064030118926300,8.45292626953125,-0.31603461503982544,-9.349357604980469,-1.8124107122421265
1750064030134887000,8.468886962890625,-0.3974374830722809,-9.404424667358398,-2.032677173614502
1750064030150878200,8.484878173828125,-0.3998316824436188,-9.461885452270508,-2.2888567447662354
1750064030166869500,8.500869384765625,-0.24899697303771973,-9.521739959716797,-2.6791117191314697
1750064030182830000,8.516830078125,-0.019153613597154617,-9.57201862335205,-3.0526070594787598
1750064030198821400,8.5328212890625,0.20111294090747833,-9.567230224609375,-3.1866824626922607
1750064030214782000,8.548781982421875,0.3902548849582672,-9.552865028381348,-3.179499864578247
1750064030230773200,8.564773193359375,0.4118026793003082,-9.495404243469238,-3.246537446975708
1750064030246733800,8.58073388671875,0.3687070608139038,-9.320627212524414,-3.40216064453125
1750064030262694700,8.596694580078125,0.31603461503982544,-9.155426979064941,-3.485957622528076
1750064030286651000,8.62065087890625,0.2944868206977844,-9.193734169006348,-3.550601005554199
1750064030302642200,8.63664208984375,0.38067805767059326,-9.222464561462402,-3.56017804145813
1750064030318664000,8.652663818359375,0.48602294921875,-9.344569206237793,-3.600879430770874
1750064030334655000,8.668655029296875,0.5602431893348694,-9.490615844726562,-3.620033025741577
1750064030350585300,8.68458544921875,0.6033388376235962,-9.402029991149902,-3.5242648124694824
1750064030366606800,8.70060693359375,0.6512228846549988,-9.097966194152832,-3.4332852363586426
1750064030382567700,8.716567626953125,0.6727706789970398,-8.798690795898438,-3.2537200450897217
1750064030398467300,8.73246728515625,0.706289529800415,-8.746018409729004,-3.0095114707946777
1750064030414458600,8.748458740234375,0.7038952708244324,-9.006986618041992,-2.9017724990844727
1750064030430480100,8.764480224609375,0.751779317855835,-9.327810287475586,-2.868253707885742
1750064030446471400,8.780471435546875,0.7829039692878723,-9.521739959716797,-2.7246015071868896
1750064030462432300,8.796432373046875,0.7781155705451965,-9.59596061706543,-2.5929205417633057
1750064030478392800,8.812392822265625,0.6967126727104187,-9.569623947143555,-2.4133553504943848
1750064030494353700,8.828353759765625,0.586579442024231,-9.47146224975586,-2.300827741622925
1750064030510283800,8.84428369140625,0.4884171485900879,-9.387664794921875,-2.2170307636260986
1750064030526274800,8.86027490234375,0.3734954595565796,-9.397241592407227,-2.205059766769409
1750064030542235600,8.876235595703125,0.304063618183136,-9.543288230895996,-2.300827741622925
1750064030558196200,8.8921962890625,0.26096799969673157,-9.761159896850586,-2.3127987384796143
1750064030574126600,8.908126708984375,0.16759411990642548,-9.914389610290527,-2.3582887649536133
1750064030590056700,8.924056640625,0.11252748221158981,-9.911994934082031,-2.3127987384796143
1750064030606078500,8.940078369140625,0.07422025501728058,-9.682151794433594,-2.1978771686553955
1750064030622039000,8.9560390625,0,-9.41400146484375,-2.118868589401245
1750064030638030300,8.9720302734375,-0.016759412363171577,-9.287108421325684,-2.03507137298584
1750064030654021600,8.988021728515625,-0.06224924325942993,-9.390059471130371,-2.0207061767578125
1750064030669951700,9.00395166015625,-0.11252748221158981,-9.567230224609375,-2.011129379272461
1750064030685973500,9.019973388671875,-0.17477671802043915,-9.75637149810791,-1.9632453918457031
1750064030701934000,9.03593408203125,-0.2298433631658554,-9.818621635437012,-1.9369091987609863
1750064030717864200,9.0518642578125,-0.24181437492370605,-9.706093788146973,-1.9991583824157715
1750064030733855500,9.06785546875,-0.21308395266532898,-9.488221168518066,-2.1547815799713135
1750064030749907700,9.08390771484375,-0.20111294090747833,-9.32302188873291,-2.3127987384796143
1750064030765837800,9.099837890625,-0.2059013396501541,-9.217676162719727,-2.494758129119873
1750064030781829000,9.1158291015625,-0.2059013396501541,-9.174580574035645,-2.693476915359497
1750064030797851000,9.131850830078125,-0.19632454216480255,-9.188945770263672,-2.82515811920166
1750064030813842200,9.14784228515625,-0.14365209639072418,-9.188945770263672,-2.942473888397217
1750064030829772300,9.163772216796875,0.004788403399288654,-9.224859237670898,-3.1316158771514893
1750064030845763600,9.179763671875,0.11252748221158981,-9.308655738830566,-3.268085241317749
1750064030861724200,9.19572412109375,0.22744916379451752,-9.38048267364502,-3.308786630630493
1750064030877715500,9.211715576171875,0.2561795711517334,-9.351752281188965,-3.421314239501953
1750064030893645600,9.2276455078125,0.2753331959247589,-9.339780807495117,-3.514688014984131
1750064030909636900,9.243636962890625,0.272938996553421,-9.330204010009766,-3.5194764137268066
1750064030925597400,9.259597412109375,0.26096799969673157,-9.337387084960938,-3.380612850189209
1750064030941558000,9.27555810546875,0.2825157940387726,-9.318233489990234,-3.3207578659057617
1750064030957488400,9.29148828125,0.37828385829925537,-9.330204010009766,-3.2561142444610596
1750064030973479400,9.3074794921875,0.45010992884635925,-9.368511199951172,-3.2800562381744385
1750064030989501200,9.323501220703125,0.7158663272857666,-9.430760383605957,-3.227383852005005
1750064031005492500,9.339492431640625,0.7852981686592102,-9.500192642211914,-3.1028854846954346
1750064031021483800,9.35548388671875,0.8762778043746948,-9.476250648498535,-2.9735984802246094
1750064031037444400,9.3714443359375,1.094150185585022,-9.481039047241211,-2.9281086921691895
1750064031053496600,9.38749658203125,1.1468225717544556,-9.488221168518066,-2.8419175148010254
1750064031069487900,9.40348779296875,1.170764684677124,-9.497797966003418,-2.7006595134735107
1750064031085509600,9.419509521484375,1.1180921792984009,-9.545681953430176,-2.537853717803955
1750064031101439700,9.435439697265625,1.0031704902648926,-9.57441234588623,-2.4875755310058594
1750064031117431000,9.45143115234375,0.9552865028381348,-9.495404243469238,-2.3343467712402344
1750064031133422000,9.467422119140625,0.8786720037460327,-9.442731857299805,-2.2577321529388428
1750064031149352400,9.4833525390625,0.7996633648872375,-9.421183586120605,-2.279279947280884
1750064031165374000,9.4993740234375,0.7350199222564697,-9.44991397857666,-2.2816741466522217
1750064031181334800,9.515334716796875,0.6991068720817566,-9.502586364746094,-2.4588451385498047
1750064031197295400,9.53129541015625,0.5961562395095825,-9.583989143371582,-2.5258827209472656
1750064031213256200,9.547256103515625,0.5530605912208557,-9.607931137084961,-2.5737667083740234
1750064031229186300,9.563186279296875,0.5291185975074768,-9.423578262329102,-2.676717519760132
1750064031245208000,9.5792080078125,0.5171475410461426,-9.246406555175781,-2.784456491470337
1750064031261168600,9.595168701171875,0.5363011956214905,-9.301473617553711,-2.9017724990844727
1750064031277160000,9.611159912109375,0.48602294921875,-9.512163162231445,-2.9712042808532715
1750064031293151200,9.627151123046875,0.4381389021873474,-9.694122314453125,-3.021482467651367
1750064031309081300,9.643081298828125,0.3926490843296051,-9.624691009521484,-2.9664158821105957
1750064031325103000,9.65910302734375,0.2825157940387726,-9.560047149658203,-2.9089550971984863
1750064031341063700,9.675063720703125,0.22744916379451752,-9.531316757202148,-2.8850131034851074
1750064031356994000,9.690994140625,0.21787235140800476,-9.567230224609375,-2.760514497756958
1750064031372985000,9.706985107421875,0.10055647045373917,-9.516951560974121,-2.6431987285614014
1750064031388976400,9.722976318359375,-0.15562310814857483,-9.485827445983887,-2.5498247146606445
1750064031404937000,9.73893701171875,-0.45250412821769714,-9.459490776062012,-2.5282769203186035
1750064031420897800,9.754897705078125,-0.6368576288223267,-9.464279174804688,-2.5474305152893066
1750064031436919600,9.77091943359375,-0.5817909836769104,-9.387664794921875,-2.7269957065582275
1750064031452880100,9.786880126953125,-0.3663128614425659,-9.248801231384277,-2.853888511657715
1750064031468841000,9.802841064453125,-0.05506663769483566,-9.253589630126953,-2.8443117141723633
1750064031484832000,9.81883203125,0.1604115068912506,-9.208099365234375,-2.87064790725708
1750064031500823300,9.8348232421875,0.19632454216480255,-9.232041358947754,-3.0190882682800293
1750064031516723000,9.850722900390625,0.08858546614646912,-9.222464561462402,-2.96162748336792
1750064031532714200,9.86671435546875,-0.09816227108240128,-9.313444137573242,-3.0765492916107178
1750064031548735700,9.88273583984375,-0.272938996553421,-9.493009567260742,-3.1651346683502197
1750064031564727000,9.89872705078125,-0.33279404044151306,-9.612719535827637,-3.2609026432037354
1750064031580688000,9.91468798828125,-0.2561795711517334,-9.445125579833984,-3.2848446369171143
1750064031596587500,9.93058740234375,-0.1604115068912506,-9.095572471618652,-3.160346269607544
1750064031612578600,9.94657861328125,-0.035913024097681046,-8.87051773071289,-3.1507694721221924
1750064031628569900,9.96256982421875,-0.040701430290937424,-8.995016098022461,-3.203441858291626
1750064031644530400,9.978530517578125,-0.1364694982767105,-9.308655738830566,-3.2609026432037354
1750064031660491300,9.9944912109375,-0.22026655077934265,-9.430760383605957,-3.2561142444610596
1750064031676451800,10.010451904296875,-0.13168109953403473,-9.44991397857666,-3.1028854846954346
1750064031692412700,10.02641259765625,0.06224924325942993,-9.493009567260742,-3.0166940689086914
1750064031708342800,10.0423427734375,0.3016694188117981,-9.586383819580078,-2.918531894683838
1750064031724395000,10.05839501953125,0.507570743560791,-9.727641105651855,-2.82515811920166
1750064031740386300,10.07438623046875,0.6344634294509888,-9.797073364257812,-2.7437551021575928
1750064031756408000,10.090407958984375,0.6823474764823914,-9.737217903137207,-2.6671407222747803
1750064031772338200,10.106338134765625,0.7086837291717529,-9.59596061706543,-2.5737667083740234
1750064031788360000,10.12235986328125,0.7493851184844971,-9.141061782836914,-2.451662540435791
1750064031804290000,10.1382900390625,0.7398083209991455,-8.724471092224121,-2.315192937850952
1750064031820281300,10.15428125,0.6823474764823914,-8.705317497253418,-2.0183119773864746
1750064031836303000,10.17030322265625,0.5626373887062073,-8.78193187713623,-1.9584569931030273
1750064031852294100,10.186294189453125,0.47884035110473633,-8.753201484680176,-2.255337953567505
1750064031868224500,10.202224609375,0.48602294921875,-8.712499618530273,-2.3247697353363037
1750064031884246000,10.21824609375,0.646434485912323,-8.767566680908203,-2.319981336593628
1750064031900206800,10.234206787109375,0.8523358106613159,-8.741230010986328,-2.4181437492370605
1750064031916137000,10.250136962890625,1.2306196689605713,-8.633491516113281,-2.559401512145996
1750064031932128300,10.266128173828125,1.3048399686813354,-8.669404029846191,-2.736572504043579
1750064031948119300,10.282119384765625,1.2425906658172607,-8.995016098022461,-2.849100112915039
1750064031964110600,10.298110595703125,0.8044517636299133,-9.284713745117188,-2.6024973392486572
1750064031980071400,10.314071533203125,0.16998831927776337,-9.327810287475586,-2.492363929748535
1750064031996001500,10.33000146484375,-0.2322375625371933,-9.21288776397705,-2.47560453414917
1750064032011992800,10.345992919921875,0.15322890877723694,-9.21288776397705,-2.367865562438965
1750064032028045000,10.362045166015625,1.237802267074585,-9.457097053527832,-2.279279947280884
1750064032044005600,10.378005615234375,1.280897855758667,-9.818621635437012,-1.7381904125213623
1750064032060027400,10.39402734375,0.4429273009300232,-10.132261276245117,-1.2521674633026123
1750064032076049200,10.410049072265625,-0.43095630407333374,-10.488997459411621,-1.0534487962722778
1750064032092040200,10.426040283203125,-1.0103530883789062,-10.96544361114502,-0.8427590131759644
1750064032108031500,10.442031494140625,-1.5705963373184204,-11.058817863464355,-0.689530074596405
1750064032124022800,10.458022705078125,-1.3551181554794312,-10.745177268981934,-0.42856210470199585
1750064032140013800,10.474013916015625,-0.3878606855869293,-10.491392135620117,-0.2059013396501541
1750064032156035600,10.49003564453125,0.11971008777618408,-10.321403503417969,-0.043095629662275314
1750064032171966000,10.505966064453125,-0.038307227194309235,-10.292673110961914,0.1149216815829277
1750064032187957000,10.52195703125,-0.569819986820221,-10.584765434265137,0.002394201699644327
1750064032203917800,10.537917724609375,-1.0582371950149536,-10.939107894897461,-0.26336219906806946
1750064032219878400,10.55387841796875,-0.933738648891449,-11.149797439575195,-0.3926490843296051
1750064032235900200,10.569900146484375,-0.3974374830722809,-10.860098838806152,-0.6584054827690125
1750064032251861000,10.585861083984375,-0.23702596127986908,-10.556035041809082,-1.237802267074585
1750064032267821600,10.601821533203125,-0.24660277366638184,-10.362105369567871,-1.7166426181793213
1750064032283873800,10.617873779296875,-0.3663128614425659,-10.11550235748291,-2.073378562927246
1750064032299834600,10.633834716796875,-0.5339069962501526,-10.031704902648926,-2.4420857429504395
1750064032315764700,10.6497646484375,-0.3471592366695404,-9.478644371032715,-2.494758129119873
1750064032331755800,10.665755859375,-0.24420857429504395,-8.834604263305664,-2.322375535964966
1750064032347747000,10.6817470703125,-0.304063618183136,-8.489839553833008,-2.3750481605529785
1750064032363738400,10.69773828125,-0.3280056416988373,-8.480262756347656,-2.47560453414917
1750064032379699000,10.713698974609375,-0.1364694982767105,-8.829815864562988,-2.693476915359497
1750064032403686000,10.737685791015625,0.4429273009300232,-9.346963882446289,-3.0526070594787598
1750064032419677000,10.753677001953125,0.8236053586006165,-9.476250648498535,-2.9281086921691895
1750064032435637800,10.7696376953125,1.280897855758667,-9.533711433410645,-2.516305923461914
1750064032451598300,10.785598388671875,1.6711528301239014,-9.586383819580078,-2.169146776199341
1750064032467528700,10.80152880859375,1.6424223184585571,-9.713275909423828,-1.8698714971542358
1750064032483519700,10.817519775390625,1.4508862495422363,-9.761159896850586,-1.5658079385757446
1750064032499480600,10.83348046875,1.280897855758667,-9.770736694335938,-1.2306196689605713
1750064032515502300,10.84950244140625,1.1109095811843872,-9.583989143371582,-1.0558429956436157
1750064032531463000,10.865462890625,1.0103530883789062,-9.373299598693848,-1.0127472877502441
1750064032547393000,10.88139306640625,0.8690952062606812,-9.421183586120605,-1.0079588890075684
1750064032563414800,10.897414794921875,0.7541735172271729,-9.617507934570312,-1.3215993642807007
1750064032579375600,10.913375732421875,0.47165772318840027,-9.852140426635742,-1.5634137392044067
1750064032595336200,10.929336181640625,0.4189853072166443,-9.983820915222168,-1.6927006244659424
1750064032611327500,10.945327392578125,0.42616790533065796,-10.070012092590332,-1.678335428237915
1750064032627318500,10.961318603515625,0.395043283700943,-10.24000072479248,-1.7286136150360107
1750064032643249000,10.977248779296875,0.14844051003456116,-10.42195987701416,-1.802833914756775
1750064032659270700,10.993270751953125,-0.1388636976480484,-10.201693534851074,-1.6903064250946045
1750064032675261700,11.00926171875,-0.26096799969673157,-9.655815124511719,-1.2880805730819702
1750064032691253000,11.0252529296875,-0.3208230137825012,-9.162610054016113,-0.9983820915222168
1750064032707274800,11.041274658203125,-0.4381389021873474,-8.880094528198242,-0.8954314589500427
1750064032723265800,11.057265869140625,-0.7374141216278076,-9.033323287963867,-0.9911994934082031
1750064032739257000,11.073257080078125,-0.9768342971801758,-9.9000244140625,-1.4724340438842773
1750064032755248400,11.089248291015625,-1.137245774269104,-10.431536674499512,-2.123656988143921
1750064032771239400,11.105239501953125,-1.1276689767837524,-10.398017883300781,-2.58813214302063
1750064032787230700,11.121230712890625,-0.8738836050033569,-9.90241813659668,-2.537853717803955
1750064032803160800,11.137160888671875,-0.8092401623725891,-9.437943458557129,-2.3367409706115723
1750064032819121700,11.15312158203125,-0.9097966551780701,-8.975862503051758,-2.3104045391082764
1750064032835112700,11.16911279296875,-0.9624691009521484,-8.892065048217773,-2.1547815799713135
1750064032851073500,11.185073486328125,-0.8259995579719543,-9.05247688293457,-2.3487119674682617
1750064032867095300,11.20109521484375,-0.6224924325942993,-9.402029991149902,-2.4684219360351562
1750064032883086300,11.21708642578125,-0.3016694188117981,-9.524134635925293,-2.52109432220459
1750064032899047200,11.233047119140625,0.05746084079146385,-9.251194953918457,-2.612074136734009
1750064032915069000,11.24906884765625,0.23942017555236816,-9.011775016784668,-2.470816135406494
1750064032931060000,11.26506005859375,0.3519476354122162,-8.966285705566406,-2.319981336593628
1750064032947051300,11.28105126953125,0.4620809257030487,-9.08838939666748,-2.250549554824829
1750064032963042600,11.29704248046875,0.43095630407333374,-9.23443603515625,-2.2218191623687744
1750064032979033600,11.31303369140625,0.27054479718208313,-9.41400146484375,-2.229001760482788
1750064032995025000,11.32902490234375,0.19632454216480255,-9.461885452270508,-2.3367409706115723
1750064033010985700,11.34498583984375,0.13168109953403473,-9.452308654785156,-2.3774423599243164
1750064033026976800,11.360976806640625,0.08858546614646912,-9.47146224975586,-2.4013843536376953
1750064033042907100,11.3769072265625,0.12210428714752197,-9.481039047241211,-2.470816135406494
1750064033058928600,11.3929287109375,0.24899697303771973,-9.418789863586426,-2.5713725090026855
1750064033074920000,11.408919921875,0.26096799969673157,-9.421183586120605,-2.736572504043579
1750064033090880800,11.424880859375,0.1843535304069519,-9.6989107131958,-2.964021682739258
1750064033106871800,11.440871826171875,0.028730420395731926,-10.002974510192871,-3.201047658920288
1750064033122802000,11.456802001953125,-0.1364694982767105,-9.883264541625977,-3.2561142444610596
1750064033138823700,11.47282373046875,-0.33039984107017517,-9.502586364746094,-3.0861260890960693
1750064033154815000,11.48881494140625,-0.5219359993934631,-9.239224433898926,-2.983175277709961
1750064033170775600,11.504775634765625,-0.7613561153411865,-9.102754592895508,-2.9448680877685547
1750064033186706000,11.520705810546875,-0.9959878921508789,-9.023746490478516,-2.8778305053710938
1750064033202697000,11.536697021484375,-1.2234370708465576,-9.02135181427002,-2.7988216876983643
1750064033218657800,11.55265771484375,-1.5059528350830078,-9.260771751403809,-2.911349296569824
1750064033234679600,11.568679443359375,-1.5945383310317993,-9.421183586120605,-3.155557870864868
1750064033250670600,11.584670654296875,-1.5658079385757446,-9.361329078674316,-3.3710360527038574
1750064033266601000,11.60060107421875,-1.4748282432556152,-9.038111686706543,-3.3901896476745605
1750064033282592000,11.616592041015625,-1.2689268589019775,-8.62630844116211,-3.313575267791748
1750064033298552800,11.632552734375,-1.1779472827911377,-8.425195693969727,-3.1483752727508545
1750064033314543900,11.6485439453125,-1.0678139925003052,-8.650250434875488,-3.1028854846954346
1750064033330504700,11.664504638671875,-0.9169792532920837,-9.263166427612305,-3.069366693496704
1750064033346434800,11.680434814453125,-0.7781155705451965,-9.524134635925293,-2.9065608978271484
1750064033362487000,11.696487060546875,-0.5578489899635315,-9.452308654785156,-2.5665841102600098
1750064033378448000,11.71244775390625,-0.3256114423274994,-9.346963882446289,-2.078166961669922
1750064033394469600,11.7284697265625,-0.17477671802043915,-9.397241592407227,-1.6639702320098877
1750064033410430200,11.74443017578125,-0.2082955539226532,-9.555258750915527,-1.4317326545715332
1750064033426421500,11.76042138671875,-0.2082955539226532,-9.830592155456543,-1.4197616577148438
1750064033442351600,11.7763515625,-0.17238251864910126,-9.86650562286377,-1.5969325304031372
1750064033458373400,11.792373291015625,-0.1604115068912506,-9.610325813293457,-1.9393033981323242
1750064033474364400,11.808364501953125,-0.1364694982767105,-9.375694274902344,-2.3343467712402344
1750064033490355700,11.824355712890625,-0.1173158809542656,-9.205705642700195,-2.559401512145996
1750064033506347000,11.840346923828125,-0.16759411990642548,-9.102754592895508,-2.808398485183716
1750064033522246700,11.85624658203125,-0.21787235140800476,-8.966285705566406,-2.937685489654541
1750064033538237700,11.87223779296875,-0.13168109953403473,-8.949525833129883,-2.9017724990844727
1750064033554229000,11.88822900390625,-0.031124621629714966,-9.141061782836914,-2.9017724990844727
1750064033570189800,11.90418994140625,0,-9.334992408752441,-3.045424461364746
1750064033586180900,11.920180908203125,-0.06224924325942993,-9.332598686218262,-3.134010076522827
1750064033602172200,11.936172119140625,-0.08379705995321274,-9.081207275390625,-3.071760892868042
1750064033618163500,11.95216357421875,-0.047884032130241394,-8.83699893951416,-3.090914487838745
1750064033634093600,11.968093505859375,0.06224924325942993,-8.944737434387207,-3.2154128551483154
1750064033650054100,11.98405419921875,0.033518824726343155,-9.349357604980469,-3.3446998596191406
1750064033666076000,12.000075927734375,0.011971008032560349,-9.643844604492188,-3.426102638244629
1750064033682067200,12.016067138671875,-0.033518824726343155,-9.696516990661621,-3.332728862762451
1750064033698027800,12.03202783203125,-0.17717093229293823,-9.57441234588623,-3.2321722507476807
1750064033713958100,12.047958251953125,-0.33279404044151306,-9.552865028381348,-2.9233202934265137
1750064033729949200,12.06394921875,-0.44532153010368347,-9.658209800720215,-2.7509377002716064
1750064033745971000,12.079970947265625,-0.5554547905921936,-9.787496566772461,-2.626439332962036
1750064033761962200,12.095962158203125,-0.689530074596405,-9.880870819091797,-2.5761611461639404
1750064033777922800,12.1119228515625,-0.912190854549408,-9.830592155456543,-2.557007312774658
1750064033793944600,12.127944580078125,-1.0797849893569946,-9.732429504394531,-2.5785553455352783
1750064033809905400,12.143905517578125,-1.0678139925003052,-9.548076629638672,-2.6384103298187256
1750064033825835500,12.15983544921875,-1.1779472827911377,-9.425971984863281,-2.693476915359497
1750064033841857300,12.175857177734375,-1.4317326545715332,-9.59596061706543,-2.9951462745666504
1750064033857848300,12.191848388671875,-1.6400281190872192,-9.682151794433594,-3.3063924312591553
1750064033873870000,12.2078701171875,-1.702277421951294,-9.591172218322754,-3.552995204925537
1750064033889861400,12.223861328125,-1.5897499322891235,-9.294290542602539,-3.5194764137268066
1750064033905822000,12.239822021484375,-1.4437036514282227,-9.100360870361328,-3.3231520652770996
1750064033921813200,12.255813232421875,-1.3072341680526733,-9.126696586608887,-3.1483752727508545
1750064033937774000,12.271774169921875,-1.0869675874710083,-9.311050415039062,-2.9305028915405273
1750064033953795600,12.287795654296875,-0.7398083209991455,-9.44991397857666,-2.674323320388794
1750064033969787000,12.303786865234375,-0.4141969084739685,-9.600749015808105,-2.5091233253479004
1750064033985717000,12.319717041015625,-0.20350714027881622,-9.706093788146973,-2.3367409706115723
1750064034001708300,12.335708251953125,-0.07900865375995636,-9.660603523254395,-2.142810583114624
1750064034017699600,12.351699462890625,0.07422025501728058,-9.653421401977539,-1.9560627937316895
1750064034033721300,12.367721435546875,0.2106897532939911,-9.75637149810791,-1.9081788063049316
1750064034049712400,12.38371240234375,0.3423708379268646,-9.81143856048584,-2.006340980529785
1750064034065642500,12.399642578125,0.4429273009300232,-9.81143856048584,-2.0614075660705566
1750064034081695000,12.415695068359375,0.4884171485900879,-9.77791976928711,-2.075772762298584
1750064034097655600,12.431655517578125,0.5410895943641663,-9.646238327026367,-2.121262788772583
1750064034113677300,12.44767724609375,0.5554547905921936,-9.605537414550781,-2.0925323963165283
1750064034129668600,12.463668701171875,0.5722141861915588,-9.612719535827637,-2.0685901641845703
1750064034145598700,12.4795986328125,0.5315127968788147,-9.50498104095459,-2.0590133666992188
1750064034161651000,12.49565087890625,0.40701428055763245,-9.337387084960938,-1.9297266006469727
1750064034177611500,12.511611572265625,0.26096799969673157,-9.119514465332031,-1.9345149993896484
1750064034193633300,12.52763330078125,0.10295066982507706,-9.030928611755371,-2.1116859912872314
1750064034209624600,12.54362451171875,-0.026336219161748886,-9.035717010498047,-2.4851813316345215
1750064034225554700,12.5595546875,-0.1173158809542656,-9.028534889221191,-2.8419175148010254
1750064034241576400,12.575576416015625,-0.17477671802043915,-9.133879661560059,-3.1316158771514893
1750064034257567700,12.591567626953125,-0.29209262132644653,-9.282320022583008,-3.3686418533325195
1750064034273558800,12.607558837890625,-0.5889736413955688,-9.332598686218262,-3.557783842086792
1750064034289550000,12.623550048828125,-0.8307880163192749,-9.167398452758789,-3.6511576175689697
1750064034305541400,12.639541259765625,-0.8690952062606812,-9.097966194152832,-3.6750996112823486
1750064034321471500,12.655471435546875,-0.8930372595787048,-9.167398452758789,-3.4596214294433594
1750064034337462800,12.671462890625,-1.3287819623947144,-9.318233489990234,-3.2106244564056396
1750064034353453800,12.687453857421875,-1.9081788063049316,-9.378087997436523,-2.8562827110290527
1750064034369414700,12.70341455078125,-1.659181833267212,-9.354146003723145,-2.537853717803955
1750064034385436400,12.7194365234375,-1.1324573755264282,-9.246406555175781,-2.3989901542663574
1750064034401427500,12.735427490234375,-0.7254431247711182,-9.241618156433105,-2.205059766769409
1750064034417357800,12.75135791015625,-0.4213795065879822,-9.370905876159668,-2.1308395862579346
1750064034433318400,12.767318359375,-0.19871874153614044,-9.543288230895996,-2.0829553604125977
1750064034449279000,12.783279052734375,0.009576806798577309,-9.490615844726562,-1.7549498081207275
1750064034465300700,12.79930078125,0.14604631066322327,-9.514557838439941,-1.522712230682373
1750064034481353000,12.81535302734375,0.33279404044151306,-9.57441234588623,-1.3958195447921753
1750064034497344300,12.83134423828125,0.5123591423034668,-9.59596061706543,-1.3263877630233765
1750064034513366000,12.847365966796875,0.5841852426528931,-9.593565940856934,-1.1109095811843872
1750064034529357300,12.863357421875,0.545877993106842,-9.634267807006836,-1.1252747774124146
1750064034545287400,12.879287353515625,0.6272808313369751,-9.75397777557373,-1.216254472732544
1750064034561309200,12.89530908203125,0.730231523513794,-9.904812812805176,-1.3048399686813354
1750064034577269800,12.911269775390625,0.47165772318840027,-10.031704902648926,-1.3431471586227417
1750064034593322000,12.927322021484375,0.22744916379451752,-10.196905136108398,-1.723825216293335
1750064034609313300,12.943313232421875,0.22744916379451752,-10.38604736328125,-2.0829553604125977
1750064034625304600,12.9593046875,-0.06703764945268631,-10.26394271850586,-2.2218191623687744
1750064034641234700,12.975234619140625,-0.2106897532939911,-9.813833236694336,-2.5474305152893066
1750064034657256400,12.99125634765625,-0.3663128614425659,-9.30386734008789,-2.9233202934265137
1750064034673278200,13.0072783203125,-0.790086567401886,-9.124302864074707,-3.2130186557769775
1750064034689238800,13.02323876953125,-0.9193734526634216,-9.074024200439453,-3.292027235031128
1750064034713195000,13.047195068359375,-0.07900865375995636,-9.05487060546875,-3.2321722507476807
1750064034737182000,13.071181884765625,0.4381389021873474,-9.282320022583008,-3.4548330307006836
1750064034753173200,13.08717333984375,0.3878606855869293,-9.672574996948242,-3.6080620288848877
1750064034769164300,13.103164306640625,0.272938996553421,-9.830592155456543,-3.869029998779297
1750064034785094400,13.119094482421875,0.043095629662275314,-9.59835433959961,-3.670311212539673
1750064034801116200,13.1351162109375,-0.20350714027881622,-9.263166427612305,-3.095702886581421
1750064034817107500,13.151107421875,-0.31124621629714966,-8.892065048217773,-2.717418909072876
1750064034841124900,13.175124755859375,-0.26336219906806946,-8.540117263793945,-2.4660277366638184
1750064034857116000,13.191115966796875,-0.14604631066322327,-8.628703117370605,-2.319981336593628
1750064034873046300,13.20704638671875,0.014365210197865963,-8.858546257019043,-2.513911724090576
1750064034889098500,13.223098388671875,0.1628057211637497,-9.196128845214844,-2.7437551021575928
1750064034905059000,13.23905908203125,0.33039984107017517,-9.41400146484375,-2.6024973392486572
1750064034921080800,13.255080810546875,0.38067805767059326,-9.366117477416992,-2.296039342880249
1750064034945037000,13.279037109375,0.3998316824436188,-8.913613319396973,-2.387019157409668
1750064034960998000,13.294997802734375,0.3423708379268646,-8.918401718139648,-2.5953147411346436
1750064034976989000,13.310989013671875,0.2992752194404602,-9.275136947631836,-2.6791117191314697
1750064034993010700,13.3270107421875,0.3423708379268646,-9.684545516967773,-2.7892448902130127
1750064035009002000,13.343001953125,0.4213795065879822,-9.928754806518555,-2.892195701599121
1750064035024962600,13.358962646484375,0.6248866319656372,-9.837775230407715,-3.1052796840667725
1750064035040984300,13.374984375,0.9672574996948242,-9.677363395690918,-3.0621838569641113
1750064035056945200,13.390945068359375,1.8339585065841675,-9.452308654785156,-3.134010076522827
1750064035072936200,13.406936279296875,2.4181437492370605,-9.32302188873291,-3.0406360626220703
1750064035088927500,13.422927490234375,2.2409727573394775,-9.227252960205078,-2.75812029838562
1750064035104888300,13.438888427734375,1.9273324012756348,-9.215282440185547,-2.8658595085144043
1750064035120940500,13.4549404296875,1.7573440074920654,-9.41639518737793,-2.7126305103302
1750064035136931600,13.470931640625,1.7334020137786865,-9.593565940856934,-2.3104045391082764
1750064035152923000,13.4869228515625,1.5298948287963867,-9.57441234588623,-2.0638017654418945
1750064035168914200,13.5029140625,1.2617442607879639,-9.478644371032715,-1.9393033981323242
1750064035184905200,13.5189052734375,1.0462661981582642,-9.404424667358398,-1.9321208000183105
1750064035200927000,13.534927001953125,0.7493851184844971,-9.445125579833984,-1.9033904075622559
1750064035216887800,13.5508876953125,0.4884171485900879,-9.588777542114258,-1.8267759084701538
1750064035232818000,13.56681787109375,0.3064578175544739,-9.907206535339355,-1.7357962131500244
1750064035248778500,13.582778564453125,0.24899697303771973,-10.182539939880371,-1.8148049116134644
1750064035264769800,13.598769775390625,0.17717093229293823,-9.998186111450195,-1.8052281141281128
1750064035280700000,13.614699951171875,0.09816227108240128,-9.363722801208496,-1.7286136150360107
1750064035296660700,13.63066064453125,-0.023942016065120697,-8.616731643676758,-1.7142484188079834
1750064035312651800,13.64665185546875,-0.18914192914962769,-7.90086555480957,-1.764526605606079
1750064035328582100,13.66258203125,-0.20111294090747833,-7.714118003845215,-1.8531121015548706
1750064035344604000,13.67860400390625,0.17238251864910126,-8.973467826843262,-2.382230758666992
1750064035360656100,13.69465625,0.689530074596405,-11.216835021972656,-2.80361008644104
1750064035376616700,13.71061669921875,1.0127472877502441,-12.825738906860352,-3.3518824577331543
1750064035392638500,13.726638427734375,1.0989385843276978,-12.995726585388184,-3.423708438873291
1750064035408629800,13.742629638671875,0.8643068075180054,-10.790667533874512,-2.7485435009002686
1750064035424559900,13.758559814453125,0.4405331015586853,-8.698134422302246,-2.142810583114624
1750064035440581600,13.77458154296875,0.08858546614646912,-7.886500358581543,-1.968033790588379
1750064035456572700,13.79057275390625,-0.13407529890537262,-7.970297336578369,-2.367865562438965
1750064035472594400,13.806594482421875,-0.23702596127986908,-8.674192428588867,-2.9759926795959473
1750064035488555300,13.82255517578125,-0.14365209639072418,-9.708487510681152,-3.3854012489318848
1750064035504515800,13.838515869140625,0.1412578970193863,-10.426748275756836,-3.7612907886505127
1750064035520446000,13.854446044921875,0.5363011956214905,-10.457873344421387,-4.182670593261719
1750064035536448800,13.87044873046875,0.9265560507774353,-9.78989028930664,-4.369418144226074
1750064035552409300,13.886409423828125,1.0821791887283325,-8.925583839416504,-4.352658748626709
1750064035568431000,13.90243115234375,1.1109095811843872,-8.135497093200684,-4.220977783203125
1750064035584452900,13.918452880859375,1.292868971824646,-7.879317760467529,-4.218583583831787
1750064035600444200,13.934444091796875,1.4724340438842773,-8.106766700744629,-4.323928356170654
1750064035616404700,13.95040478515625,1.3958195447921753,-8.786720275878906,-4.177882194519043
1750064035632334800,13.9663349609375,1.1635819673538208,-9.23682975769043,-3.9624037742614746
1750064035648326100,13.982326171875,0.7852981686592102,-9.531316757202148,-3.8498764038085938
1750064035664348000,13.998347900390625,0.45489832758903503,-9.643844604492188,-3.6391866207122803
1750064035688273700,14.022273681640625,0.15562310814857483,-9.619902610778809,-3.0166940689086914
1750064035704265000,14.038264892578125,0.23942017555236816,-9.57201862335205,-2.762908697128296
1750064035720195000,14.054195068359375,0.33039984107017517,-9.576807022094727,-2.628833532333374
1750064035736186400,14.070186279296875,0.4189853072166443,-9.694122314453125,-2.4612393379211426
1750064035752208000,14.086207763671876,0.37828385829925537,-9.823410034179688,-2.2625205516815186
1750064035768138200,14.10213818359375,0.2537853717803955,-9.926360130310059,-2.1116859912872314
1750064035792064000,14.12606396484375,-0.002394201699644327,-9.852140426635742,-1.944091796875
1750064035808177200,14.14217724609375,-0.14844051003456116,-9.691728591918945,-1.8555063009262085
1750064035824138000,14.158137939453125,-0.24899697303771973,-9.581595420837402,-1.845929503440857
1750064035840129000,14.17412890625,-0.2992752194404602,-9.497797966003418,-1.8794482946395874
1750064035856120300,14.190120361328125,-0.26336219906806946,-9.488221168518066,-1.8387469053268433
1750064035872142000,14.20614208984375,-0.19871874153614044,-9.533711433410645,-1.7381904125213623
1750064035888133400,14.22213330078125,-0.08858546614646912,-9.667786598205566,-1.6711528301239014
1750064035904094000,14.238093994140625,0.019153613597154617,-9.75637149810791,-1.6543933153152466
1750064035920085200,14.254085205078125,0.06464344263076782,-9.794678688049316,-1.6208745241165161
1750064035936045800,14.2700458984375,0.07661445438861847,-9.792284965515137,-1.525106430053711
1750064035952006700,14.286006591796875,0.021547814831137657,-9.6989107131958,-1.5298948287963867
1750064035967967200,14.30196728515625,-0.038307227194309235,-9.63187313079834,-1.6855180263519287
1750064035983958500,14.31795849609375,-0.10773907601833344,-9.567230224609375,-1.7812861204147339
1750064035999980300,14.333980224609375,-0.10773907601833344,-9.485827445983887,-1.8722656965255737
1750064036015940900,14.34994091796875,0,-9.41639518737793,-2.032677173614502
1750064036031962600,14.365962646484375,0.0933738648891449,-9.428366661071777,-2.1954829692840576
1750064036047954000,14.381953857421875,0.1843535304069519,-9.464279174804688,-2.293645143508911
1750064036071910100,14.40591015625,0.21787235140800476,-9.550470352172852,-2.561795711517334
1750064036087932000,14.421931884765625,0.26575639843940735,-9.50498104095459,-2.7700912952423096
1750064036103953700,14.43795361328125,0.28730419278144836,-9.435548782348633,-2.892195701599121
1750064036119944700,14.45394482421875,0.3687070608139038,-9.387664794921875,-3.0142998695373535
1750064036143840000,14.477840087890625,0.45010992884635925,-9.368511199951172,-3.2297780513763428
1750064036159861800,14.49386181640625,0.4884171485900879,-9.349357604980469,-3.3470940589904785
1750064036175822600,14.509822509765625,0.5434837937355042,-9.241618156433105,-3.3925838470458984
1750064036191844000,14.525843994140626,0.5841852426528931,-9.17936897277832,-3.426102638244629
1750064036207835400,14.54183544921875,0.5913678407669067,-9.121908187866211,-3.426102638244629
1750064036223765500,14.557765625,0.6560112833976746,-9.131484985351562,-3.428496837615967
1750064036239817700,14.573817626953126,0.6536170840263367,-9.181763648986816,-3.3231520652770996
1750064036255778600,14.589778564453125,0.7230489253997803,-9.26795482635498,-3.179499864578247
1750064036271708700,14.605708740234375,0.751779317855835,-9.339780807495117,-3.023876667022705
1750064036295695600,14.629695556640625,0.6248866319656372,-9.433155059814453,-2.8155810832977295
1750064036311625700,14.645625732421875,0.5123591423034668,-9.411606788635254,-2.7126305103302
1750064036327586300,14.66158642578125,0.42616790533065796,-9.373299598693848,-2.6192567348480225
1750064036343608000,14.677608154296875,0.36152446269989014,-9.421183586120605,-2.564189910888672
1750064036359599400,14.693599365234375,0.31603461503982544,-9.454702377319336,-2.4851813316345215
1750064036375560000,14.709559814453126,0.2801215946674347,-9.44752025604248,-2.492363929748535
1750064036391520800,14.725520751953125,0.2346317619085312,-9.423578262329102,-2.4157495498657227
1750064036407512000,14.741511962890625,0.2059013396501541,-9.44991397857666,-2.363077163696289
1750064036423503000,14.757503173828125,0.13168109953403473,-9.493009567260742,-2.360682964324951
1750064036439464000,14.7734638671875,0.08619125932455063,-9.521739959716797,-2.3582887649536133
1750064036455424500,14.789424560546875,0.035913024097681046,-9.53849983215332,-2.3750481605529785
1750064036471385300,14.80538525390625,0.035913024097681046,-9.44991397857666,-2.3558945655822754
1750064036487376400,14.82137646484375,0.047884032130241394,-9.35893440246582,-2.346317768096924
1750064036503367700,14.83736767578125,0.043095629662275314,-9.3828763961792,-2.403778553009033
1750064036519297800,14.8532978515625,0.047884032130241394,-9.399636268615723,-2.5306711196899414
1750064036535289000,14.8692890625,0.07422025501728058,-9.423578262329102,-2.626439332962036
1750064036551310800,14.885310791015625,0.090979665517807,-9.440337181091309,-2.7269957065582275
1750064036567271400,14.901271484375,0.07900865375995636,-9.452308654785156,-2.8155810832977295
1750064036583232300,14.917232177734375,0.11252748221158981,-9.445125579833984,-2.851494312286377
1750064036599254000,14.93325390625,0.15562310814857483,-9.361329078674316,-2.8371291160583496
1750064036615214600,14.949214599609375,0.2059013396501541,-9.32302188873291,-2.8993782997131348
1750064036631266800,14.965266845703125,0.22505496442317963,-9.330204010009766,-2.9927520751953125
1750064036647258000,14.981258056640625,0.24420857429504395,-9.351752281188965,-3.004723072052002
1750064036663249200,14.997249267578125,0.2753331959247589,-9.332598686218262,-2.9975404739379883
1750064036679179500,15.013179443359375,0.2992752194404602,-9.284713745117188,-2.9041666984558105
1750064036695170600,15.029170654296875,0.28969839215278625,-9.114726066589355,-2.853888511657715
1750064036711192300,15.0451923828125,0.3280056416988373,-9.150638580322266,-2.7485435009002686
1750064036727153200,15.061153076171875,0.4189853072166443,-9.210494041442871,-2.7054479122161865
1750064036743083300,15.077083251953125,0.5099649429321289,-9.284713745117188,-2.6384103298187256
1750064036759135500,15.093135498046875,0.524330198764801,-9.354146003723145,-2.580949544906616
1750064036775096000,15.109095947265626,0.5626373887062073,-9.473855972290039,-2.4851813316345215
1750064036791117800,15.125117919921875,0.48602294921875,-9.591172218322754,-2.367865562438965
1750064036807109000,15.141109130859375,0.38307225704193115,-9.643844604492188,-2.2577321529388428
1750064036823100400,15.157100341796875,0.3495534360408783,-9.63187313079834,-2.1763293743133545
1750064036839061000,15.17306103515625,0.35673606395721436,-9.660603523254395,-2.1332337856292725
1750064036855021800,15.189021728515625,0.36152446269989014,-9.641449928283691,-2.073378562927246
1750064036870921500,15.20492138671875,0.3471592366695404,-9.564835548400879,-2.1116859912872314
1750064036886912500,15.22091259765625,0.3064578175544739,-9.536105155944824,-2.1380221843719482
1750064036902843000,15.2368427734375,0.22266076505184174,-9.454702377319336,-2.169146776199341
1750064036918895000,15.25289501953125,0.14365209639072418,-9.39245319366455,-2.279279947280884
1750064036934855700,15.268855712890625,0.15322890877723694,-9.440337181091309,-2.432508945465088
1750064036950785800,15.284785888671875,0.19871874153614044,-9.526528358459473,-2.537853717803955
1750064036966746600,15.30074658203125,0.2346317619085312,-9.528923034667969,-2.580949544906616
1750064036982798800,15.316798828125,0.304063618183136,-9.406818389892578,-2.6623523235321045
1750064036998729000,15.33272900390625,0.28730419278144836,-9.35893440246582,-2.738966703414917
1750064037014720300,15.34872021484375,0.2513911724090576,-9.315838813781738,-2.8179752826690674
1750064037030742000,15.364741943359375,0.24181437492370605,-9.181763648986816,-2.920926094055176
1750064037046733000,15.380733154296875,0.2537853717803955,-9.121908187866211,-3.0406360626220703
1750064037062694000,15.39669384765625,0.3064578175544739,-9.193734169006348,-3.155557870864868
1750064037078654500,15.412654541015625,0.3974374830722809,-9.327810287475586,-3.337517261505127
1750064037094645800,15.428645751953125,0.4692635238170624,-9.425971984863281,-3.3949780464172363
1750064037110667500,15.44466748046875,0.5506663918495178,-9.452308654785156,-3.3063924312591553
1750064037126658600,15.460658447265626,0.5746083855628967,-9.378087997436523,-3.114856481552124
1750064037142589000,15.4765888671875,0.5147533416748047,-9.342175483703613,-2.937685489654541
1750064037158610700,15.492610595703125,0.4189853072166443,-9.428366661071777,-2.786850690841675
1750064037174571300,15.5085712890625,0.33279404044151306,-9.526528358459473,-2.6192567348480225
1750064037190501400,15.52450146484375,0.28969839215278625,-9.545681953430176,-2.4803929328918457
1750064037206523100,15.540523193359375,0.24181437492370605,-9.548076629638672,-2.3535003662109375
1750064037222514400,15.556514404296875,0.22505496442317963,-9.528923034667969,-2.1523873805999756
1750064037238444500,15.572444580078125,0.19393034279346466,-9.39245319366455,-2.0685901641845703
1750064037254405400,15.5884052734375,0.1604115068912506,-9.272743225097656,-2.0183119773864746
1750064037270427000,15.604427001953125,0.1388636976480484,-9.411606788635254,-1.9512743949890137
1750064037286418200,15.620418212890625,0.1364694982767105,-9.548076629638672,-1.9943699836730957
1750064037302348300,15.636348388671875,0.15562310814857483,-9.603142738342285,-2.0829553604125977
1750064037318370000,15.6523701171875,0.22505496442317963,-9.583989143371582,-2.166752576828003
1750064037334361300,15.668361328125,0.2777273952960968,-9.485827445983887,-2.2601263523101807
1750064037350383000,15.684383056640625,0.31842881441116333,-9.41639518737793,-2.387019157409668
1750064037366374100,15.7003740234375,0.31124621629714966,-9.454702377319336,-2.537853717803955
1750064037382335000,15.7163349609375,0.2777273952960968,-9.552865028381348,-2.715024709701538
1750064037398326300,15.732326171875,0.2801215946674347,-9.454702377319336,-2.849100112915039
1750064037414317300,15.7483173828125,0.3447650372982025,-9.265560150146484,-2.96162748336792
1750064037430247400,15.764247314453126,0.3878606855869293,-9.17936897277832,-3.0406360626220703
1750064037446208300,15.780208251953125,0.395043283700943,-9.141061782836914,-3.117250680923462
1750064037462199600,15.796199462890625,0.42377370595932007,-9.160215377807617,-3.2297780513763428
1750064037478221000,15.812220947265626,0.3902548849582672,-9.282320022583008,-3.2632968425750732
1750064037494182000,15.828181884765625,0.3878606855869293,-9.279925346374512,-3.3207578659057617
1750064037510081500,15.84408154296875,0.4357447028160095,-9.191340446472168,-3.3494882583618164
1750064037526072800,15.86007275390625,0.4429273009300232,-9.251194953918457,-3.2297780513763428
1750064037542125000,15.876125,0.4118026793003082,-9.313444137573242,-3.1196448802948
1750064037558116000,15.8921162109375,0.3926490843296051,-9.332598686218262,-2.983175277709961
1750064037574107400,15.908107421875,0.3447650372982025,-9.399636268615723,-2.8107926845550537
1750064037590068200,15.924068115234375,0.3064578175544739,-9.481039047241211,-2.6408045291900635
1750064037606028800,15.94002880859375,0.24181437492370605,-9.488221168518066,-2.5953147411346436
1750064037622020000,15.95602001953125,0.2346317619085312,-9.457097053527832,-2.513911724090576
1750064037637980700,15.971980712890625,0.2106897532939911,-9.493009567260742,-2.360682964324951
1750064037653910800,15.987910888671875,0.19632454216480255,-9.519346237182617,-2.2625205516815186
1750064037669902000,16.003902099609373,0.17238251864910126,-9.457097053527832,-2.248155355453491
1750064037685893400,16.019893310546873,0.13407529890537262,-9.473855972290039,-2.1811177730560303
1750064037701823500,16.035823486328123,0.11252748221158981,-9.473855972290039,-2.0805611610412598
1750064037717845200,16.05184521484375,0.10295066982507706,-9.41400146484375,-2.094926595687866
1750064037733805800,16.067805908203123,0.13168109953403473,-9.41639518737793,-2.1715409755706787
1750064037749797000,16.083797119140623,0.1867477297782898,-9.457097053527832,-2.2816741466522217
1750064037765757700,16.0997578125,0.2346317619085312,-9.437943458557129,-2.456450939178467
1750064037781688000,16.11568798828125,0.26096799969673157,-9.402029991149902,-2.5761611461639404
1750064037797709800,16.131709716796873,0.2777273952960968,-9.409213066101074,-2.671929121017456
1750064037813670400,16.14767041015625,0.2992752194404602,-9.370905876159668,-2.8131868839263916
1750064037829631000,16.163630859375,0.33279404044151306,-9.318233489990234,-2.9161376953125
1750064037845622300,16.179622314453123,0.37828385829925537,-9.313444137573242,-2.9951462745666504
1750064037861674500,16.195674560546873,0.3974374830722809,-9.351752281188965,-3.0526070594787598
1750064037877604600,16.2116044921875,0.4141969084739685,-9.287108421325684,-3.138798475265503
1750064037893596000,16.227595947265623,0.4381389021873474,-9.255983352661133,-3.160346269607544
1750064037909617700,16.24361767578125,0.4118026793003082,-9.342175483703613,-3.1220390796661377
1750064037925578200,16.259578125,0.40940847992897034,-9.349357604980469,-3.117250680923462
1750064037941569500,16.275569580078123,0.38067805767059326,-9.342175483703613,-2.980781078338623
1750064037957530400,16.2915302734375,0.3734954595565796,-9.346963882446289,-2.8778305053710938
1750064037973521400,16.307521484375,0.3495534360408783,-9.373299598693848,-2.786850690841675
1750064037989543200,16.323543212890623,0.30885201692581177,-9.399636268615723,-2.6862943172454834
1750064038005504000,16.33950390625,0.31124621629714966,-9.423578262329102,-2.559401512145996
1750064038021434000,16.35543408203125,0.29209262132644653,-9.435548782348633,-2.454056739807129
1750064038045420800,16.3794208984375,0.22744916379451752,-9.334992408752441,-2.3942017555236816
1750064038061412000,16.395412109375,0.18914192914962769,-9.418789863586426,-2.3104045391082764
1750064038077342200,16.41134228515625,0.18914192914962769,-9.488221168518066,-2.3127987384796143
1750064038093333500,16.42733349609375,0.22026655077934265,-9.433155059814453,-2.3558945655822754
1750064038109324800,16.44332470703125,0.2298433631658554,-9.423578262329102,-2.322375535964966
1750064038125315800,16.45931591796875,0.2777273952960968,-9.476250648498535,-2.425326347351074
1750064038141307100,16.47530712890625,0.2968810200691223,-9.466673851013184,-2.494758129119873
1750064038157237200,16.4912373046875,0.2825157940387726,-9.445125579833984,-2.5953147411346436
1750064038173228500,16.507228515625,0.2513911724090576,-9.418789863586426,-2.6216509342193604
1750064038189250300,16.523250244140623,0.2801215946674347,-9.411606788635254,-2.7269957065582275
1750064038205241300,16.539241455078123,0.304063618183136,-9.366117477416992,-2.8131868839263916
1750064038221202200,16.5552021484375,0.3495534360408783,-9.3828763961792,-2.8443117141723633
1750064038237254400,16.57125439453125,0.3519476354122162,-9.38048267364502,-2.911349296569824
1750064038253276200,16.587276123046873,0.3447650372982025,-9.294290542602539,-2.980781078338623
1750064038269267200,16.60326708984375,0.33758243918418884,-9.27034854888916,-2.956839084625244
1750064038285228000,16.61922802734375,0.33518823981285095,-9.354146003723145,-2.9544448852539062
1750064038301158100,16.635158203125,0.35434186458587646,-9.349357604980469,-2.956839084625244
1750064038317149400,16.6511494140625,0.3423708379268646,-9.311050415039062,-2.875436305999756
1750064038333110000,16.667110107421873,0.33279404044151306,-9.332598686218262,-2.7533318996429443
1750064038349101300,16.683101318359373,0.304063618183136,-9.346963882446289,-2.7102363109588623
1750064038365062000,16.699061767578126,0.31124621629714966,-9.349357604980469,-2.6647465229034424
1750064038381022700,16.715022705078123,0.2944868206977844,-9.399636268615723,-2.604891538619995
1750064038397075000,16.731074951171873,0.272938996553421,-9.47146224975586,-2.5306711196899414
1750064038413066200,16.747066162109373,0.26575639843940735,-9.476250648498535,-2.4660277366638184
1750064038429057300,16.763057373046873,0.272938996553421,-9.387664794921875,-2.449268341064453
1750064038445018000,16.77901806640625,0.272938996553421,-9.473855972290039,-2.389413356781006
1750064038460948200,16.7949482421875,0.26336219906806946,-9.509769439697266,-2.456450939178467
1750064038476970000,16.810969970703123,0.2537853717803955,-9.44752025604248,-2.4875755310058594
1750064038492961300,16.826961181640623,0.26575639843940735,-9.397241592407227,-2.5546131134033203
1750064038508982800,16.842982666015626,0.2537853717803955,-9.35654067993164,-2.6168625354766846
1750064038524974000,16.85897412109375,0.31364041566848755,-9.320627212524414,-2.652775526046753
1750064038540935000,16.874934814453123,0.3016694188117981,-9.349357604980469,-2.7533318996429443
1750064038556956400,16.890956298828126,0.3256114423274994,-9.385271072387695,-2.82515811920166
1750064038572917200,16.906917236328123,0.33279404044151306,-9.378087997436523,-2.8658595085144043
1750064038588847400,16.922847412109373,0.33039984107017517,-9.387664794921875,-2.87064790725708
1750064038604838700,16.938838623046873,0.31364041566848755,-9.373299598693848,-2.8993782997131348
1750064038620860400,16.9548603515625,0.3064578175544739,-9.394847869873047,-2.8610711097717285
1750064038636851500,16.9708515625,0.31842881441116333,-9.399636268615723,-2.8227639198303223
1750064038652842800,16.9868427734375,0.2825157940387726,-9.378087997436523,-2.7892448902130127
1750064038668834000,17.002833984375,0.2849099934101105,-9.373299598693848,-2.7509377002716064
1750064038684825000,17.0188251953125,0.27054479718208313,-9.308655738830566,-2.693476915359497
1750064038700816400,17.03481640625,0.2801215946674347,-9.337387084960938,-2.609679937362671
1750064038716807700,17.0508076171875,0.2801215946674347,-9.373299598693848,-2.6216509342193604
1750064038732798700,17.066798828125,0.272938996553421,-9.385271072387695,-2.6168625354766846
1750064038748729000,17.08272900390625,0.2753331959247589,-9.378087997436523,-2.557007312774658
1750064038764720000,17.09872021484375,0.2849099934101105,-9.41400146484375,-2.5689783096313477
1750064038780742000,17.114741943359373,0.2968810200691223,-9.435548782348633,-2.6168625354766846
1750064038796672000,17.130672119140623,0.2968810200691223,-9.423578262329102,-2.63362193107605
1750064038812663300,17.146663330078123,0.26815059781074524,-9.402029991149902,-2.6024973392486572
1750064038828685000,17.16268505859375,0.27054479718208313,-9.421183586120605,-2.6384103298187256
1750064038844645600,17.178645751953123,0.3016694188117981,-9.430760383605957,-2.6886885166168213
1750064038860606500,17.1946064453125,0.28969839215278625,-9.394847869873047,-2.7006595134735107
1750064038876628200,17.210628173828123,0.2968810200691223,-9.373299598693848,-2.7293899059295654
1750064038892588800,17.2265888671875,0.3256114423274994,-9.342175483703613,-2.782062292098999
1750064038908610600,17.242610595703123,0.30885201692581177,-9.32541561126709,-2.7557260990142822
1750064038924601900,17.258601806640623,0.3519476354122162,-9.397241592407227,-2.7246015071868896
1750064038940562400,17.2745625,0.3447650372982025,-9.418789863586426,-2.760514497756958
1750064038956553700,17.2905537109375,0.31124621629714966,-9.375694274902344,-2.7317841053009033
1750064038972514300,17.306514404296873,0.28969839215278625,-9.320627212524414,-2.676717519760132
1750064038988536000,17.3225361328125,0.2801215946674347,-9.378087997436523,-2.6455929279327393
1750064039004527400,17.33852734375,0.31364041566848755,-9.3828763961792,-2.6384103298187256
1750064039020457500,17.35445751953125,0.29209262132644653,-9.318233489990234,-2.6192567348480225
1750064039036479200,17.370479248046873,0.24181437492370605,-9.320627212524414,-2.5977089405059814
1750064039052439800,17.386439697265626,0.2513911724090576,-9.344569206237793,-2.612074136734009
1750064039068461600,17.402461669921873,0.26575639843940735,-9.318233489990234,-2.626439332962036
1750064039084422400,17.41842236328125,0.26815059781074524,-9.402029991149902,-2.6575639247894287
1750064039100352500,17.4343525390625,0.2944868206977844,-9.502586364746094,-2.719813108444214
1750064039116374300,17.450374267578123,0.30885201692581177,-9.516951560974121,-2.7437551021575928
1750064039132334800,17.4663349609375,0.27054479718208313,-9.478644371032715,-2.765302896499634
1750064039148265200,17.48226513671875,0.2513911724090576,-9.445125579833984,-2.80361008644104
1750064039164256300,17.49825634765625,0.22266076505184174,-9.368511199951172,-2.7772738933563232
1750064039180278000,17.514278076171873,0.23702596127986908,-9.332598686218262,-2.7700912952423096
1750064039196269300,17.530269287109373,0.2585737705230713,-9.349357604980469,-2.7724854946136475
1750064039212199400,17.546199462890623,0.2513911724090576,-9.349357604980469,-2.7748796939849854
1750064039228129500,17.562129638671873,0.2298433631658554,-9.284713745117188,-2.808398485183716
1750064039244090400,17.57809033203125,0.22505496442317963,-9.313444137573242,-2.7940332889556885
1750064039260112100,17.594112060546873,0.2585737705230713,-9.397241592407227,-2.8395233154296875
1750064039276103200,17.610103271484373,0.31124621629714966,-9.402029991149902,-2.8347349166870117
1750064039292064000,17.62606396484375,0.3519476354122162,-9.354146003723145,-2.765302896499634
1750064039308024600,17.642024658203123,0.36152446269989014,-9.378087997436523,-2.6839001178741455
1750064039323985400,17.6579853515625,0.35913026332855225,-9.399636268615723,-2.655169725418091
1750064039339946000,17.673946044921873,0.3232172429561615,-9.385271072387695,-2.604891538619995
1750064039355998200,17.689998291015623,0.33997663855552673,-9.390059471130371,-2.5785553455352783
1750064039371959000,17.705958984375,0.363918662071228,-9.35893440246582,-2.535459518432617
1750064039387980800,17.721980712890623,0.3687070608139038,-9.284713745117188,-2.494758129119873
1750064039403971800,17.737971923828123,0.3711012601852417,-9.296685218811035,-2.4636335372924805
1750064039419902200,17.753902099609373,0.40940847992897034,-9.425971984863281,-2.499546527862549
1750064039435923700,17.769923828125,0.4165911078453064,-9.514557838439941,-2.4851813316345215
1750064039451884500,17.785884521484373,0.38307225704193115,-9.41400146484375,-2.470816135406494
1750064039467845000,17.80184521484375,0.3519476354122162,-9.445125579833984,-2.5019407272338867
1750064039483836400,17.81783642578125,0.3280056416988373,-9.44752025604248,-2.5713725090026855
1750064039499827700,17.83382763671875,0.28730419278144836,-9.411606788635254,-2.6360161304473877
1750064039515788300,17.849788330078123,0.31364041566848755,-9.425971984863281,-2.6815059185028076
1750064039531749000,17.8657490234375,0.31124621629714966,-9.445125579833984,-2.7533318996429443
1750064039547770600,17.8817705078125,0.272938996553421,-9.378087997436523,-2.7772738933563232
1750064039563701000,17.897700927734373,0.28730419278144836,-9.277531623840332,-2.80361008644104
1750064039579722800,17.91372265625,0.2825157940387726,-9.272743225097656,-2.8443117141723633
1750064039595713800,17.9297138671875,0.24899697303771973,-9.368511199951172,-2.9496564865112305
1750064039611674600,17.945674560546873,0.2849099934101105,-9.425971984863281,-2.9903578758239746
1750064039627635200,17.96163525390625,0.2944868206977844,-9.459490776062012,-2.9233202934265137
1750064039643626500,17.97762646484375,0.3016694188117981,-9.478644371032715,-2.8371291160583496
1750064039659648300,17.993648193359373,0.26815059781074524,-9.334992408752441,-2.8395233154296875
1750064039675639300,18.009639404296873,0.19153612852096558,-9.272743225097656,-2.782062292098999
1750064039691630600,18.025630615234373,0.23702596127986908,-9.299078941345215,-2.7054479122161865
1750064039707560700,18.041560791015623,0.27054479718208313,-9.294290542602539,-2.6384103298187256
1750064039723582500,18.05758251953125,0.27054479718208313,-9.32302188873291,-2.5689783096313477
1750064039739604200,18.073604248046873,0.26336219906806946,-9.344569206237793,-2.559401512145996
1750064039755564800,18.089564697265626,0.2513911724090576,-9.296685218811035,-2.650381326675415
1750064039771556000,18.10555615234375,0.3064578175544739,-9.289502143859863,-2.676717519760132
1750064039787517000,18.121516845703123,0.4141969084739685,-9.3828763961792,-2.741360902786255
1750064039803508000,18.137508056640623,0.5147533416748047,-9.490615844726562,-2.738966703414917
1750064039819468800,18.15346875,0.524330198764801,-9.512163162231445,-2.7054479122161865
1750064039835459800,18.1694599609375,0.5123591423034668,-9.440337181091309,-2.6431987285614014
1750064039851390200,18.18539013671875,0.395043283700943,-9.435548782348633,-2.676717519760132
1750064039867320300,18.2013203125,0.35434186458587646,-9.406818389892578,-2.7748796939849854
1750064039883311600,18.2173115234375,0.33279404044151306,-9.349357604980469,-2.7269957065582275
1750064039899302700,18.233302734375,0.3687070608139038,-9.399636268615723,-2.6384103298187256
1750064039915232800,18.249232666015626,0.38546648621559143,-9.411606788635254,-2.604891538619995
1750064039931193600,18.265193603515623,0.3519476354122162,-9.39245319366455,-2.5977089405059814
1750064039947123700,18.281123779296873,0.26815059781074524,-9.409213066101074,-2.5546131134033203
1750064039963115000,18.297114990234373,0.2346317619085312,-9.421183586120605,-2.561795711517334
1750064039979167200,18.313167236328123,0.19632454216480255,-9.406818389892578,-2.612074136734009
1750064039995158500,18.329158447265623,0.2059013396501541,-9.366117477416992,-2.58813214302063
1750064040011088600,18.345088623046873,0.21308395266532898,-9.366117477416992,-2.5665841102600098
1750064040027018800,18.361018798828123,0.2082955539226532,-9.3828763961792,-2.6216509342193604
1750064040043010000,18.377010009765623,0.24660277366638184,-9.387664794921875,-2.715024709701538
1750064040059001000,18.3930009765625,0.2777273952960968,-9.38048267364502,-2.760514497756958
1750064040074962000,18.4089619140625,0.3232172429561615,-9.421183586120605,-2.7724854946136475
1750064040090922500,18.424922607421873,0.3208230137825012,-9.366117477416992,-2.7964274883270264
1750064040106852900,18.440852783203123,0.304063618183136,-9.344569206237793,-2.8179752826690674
1750064040122844000,18.456843994140623,0.31364041566848755,-9.361329078674316,-2.8179752826690674
1750064040138774300,18.472774169921873,0.3447650372982025,-9.35893440246582,-2.8658595085144043
1750064040162791400,18.49679150390625,0.4213795065879822,-9.440337181091309,-2.868253707885742
1750064040178782700,18.51278271484375,0.4405331015586853,-9.41400146484375,-2.8107926845550537
1750064040194743300,18.528743408203123,0.4118026793003082,-9.38048267364502,-2.7461493015289307
1750064040210704100,18.5447041015625,0.3998316824436188,-9.320627212524414,-2.719813108444214
1750064040226726000,18.560725830078123,0.40701428055763245,-9.35654067993164,-2.676717519760132
1750064040242686500,18.5766865234375,0.43095630407333374,-9.402029991149902,-2.647987127304077
1750064040258677800,18.592677734375,0.4118026793003082,-9.368511199951172,-2.583343744277954
1750064040274638300,18.608638427734373,0.3758896589279175,-9.378087997436523,-2.542642116546631
1750064040290629600,18.624629638671873,0.2968810200691223,-9.418789863586426,-2.5091233253479004
1750064040306651400,18.6406513671875,0.2513911724090576,-9.366117477416992,-2.518700122833252
1750064040322612000,18.656612060546873,0.26575639843940735,-9.378087997436523,-2.5019407272338867
1750064040338633700,18.6726337890625,0.2753331959247589,-9.440337181091309,-2.518700122833252
1750064040354563800,18.688563720703126,0.2753331959247589,-9.41639518737793,-2.5689783096313477
1750064040370585600,18.704585693359373,0.24660277366638184,-9.423578262329102,-2.6024973392486572
1750064040386577000,18.720576904296873,0.2561795711517334,-9.473855972290039,-2.6671407222747803
1750064040402568200,18.736568115234373,0.2561795711517334,-9.440337181091309,-2.7509377002716064
1750064040418590000,18.75258984375,0.26575639843940735,-9.35654067993164,-2.8371291160583496
1750064040434550500,18.768550537109373,0.28730419278144836,-9.32302188873291,-2.8371291160583496
1750064040450541800,18.784541748046873,0.2825157940387726,-9.332598686218262,-2.875436305999756
1750064040466563600,18.8005634765625,0.2753331959247589,-9.279925346374512,-2.9712042808532715
1750064040482493700,18.81649365234375,0.28730419278144836,-9.294290542602539,-2.9328970909118652
1750064040498484700,18.832484619140626,0.31364041566848755,-9.366117477416992,-2.9065608978271484
1750064040514445600,18.848445556640623,0.33279404044151306,-9.363722801208496,-2.920926094055176
1750064040530406100,18.86440625,0.33518823981285095,-9.327810287475586,-2.82515811920166
1750064040546428000,18.880427978515623,0.33518823981285095,-9.368511199951172,-2.738966703414917
1750064040562419200,18.896419189453123,0.2968810200691223,-9.35654067993164,-2.719813108444214
1750064040578349300,18.912349365234373,0.30885201692581177,-9.349357604980469,-2.6455929279327393
1750064040594401500,18.928401611328123,0.3447650372982025,-9.3828763961792,-2.5522189140319824
1750064040610362400,18.9443623046875,0.3495534360408783,-9.423578262329102,-2.5091233253479004
1750064040626384100,18.960384033203123,0.3519476354122162,-9.428366661071777,-2.5115175247192383
1750064040642314200,18.976314208984373,0.33997663855552673,-9.464279174804688,-2.4588451385498047
1750064040658305300,18.99230517578125,0.33039984107017517,-9.485827445983887,-2.494758129119873
1750064040674235600,19.008235595703123,0.2825157940387726,-9.433155059814453,-2.5689783096313477
1750064040690226700,19.024226806640623,0.2777273952960968,-9.39245319366455,-2.6360161304473877
1750064040706248400,19.04024853515625,0.3280056416988373,-9.421183586120605,-2.6384103298187256
1750064040722209300,19.056209228515623,0.3687070608139038,-9.425971984863281,-2.6815059185028076
1750064040738200300,19.072200439453123,0.3663128614425659,-9.342175483703613,-2.7222073078155518
1750064040754100000,19.088099853515626,0.3423708379268646,-9.363722801208496,-2.7317841053009033
1750064040770121700,19.104121826171873,0.2825157940387726,-9.35893440246582,-2.762908697128296
1750064040786082600,19.12008251953125,0.2801215946674347,-9.320627212524414,-2.8419175148010254
1750064040802104300,19.136104248046873,0.2777273952960968,-9.289502143859863,-2.832340717315674
1750064040818065000,19.15206494140625,0.31124621629714966,-9.351752281188965,-2.782062292098999
1750064040834086700,19.168086669921873,0.33758243918418884,-9.433155059814453,-2.832340717315674
1750064040850047200,19.184047119140626,0.3256114423274994,-9.375694274902344,-2.786850690841675
1750064040865977600,19.1999775390625,0.2585737705230713,-9.373299598693848,-2.734178304672241
1750064040881968600,19.21596875,0.2298433631658554,-9.375694274902344,-2.765302896499634
1750064040906016500,19.2400166015625,0.2849099934101105,-9.306262016296387,-2.7006595134735107
1750064040921977300,19.255977294921873,0.33039984107017517,-9.387664794921875,-2.6791117191314697
1750064040937907500,19.271907470703123,0.33997663855552673,-9.435548782348633,-2.6886885166168213
1750064040953898800,19.287898681640623,0.2968810200691223,-9.39245319366455,-2.6575639247894287
1750064040969889800,19.303889892578123,0.28969839215278625,-9.39245319366455,-2.5953147411346436
1750064040985881000,19.319881103515623,0.28730419278144836,-9.397241592407227,-2.6144683361053467
1750064041001841700,19.335841552734376,0.29209262132644653,-9.378087997436523,-2.6839001178741455
1750064041017863400,19.351863525390623,0.2801215946674347,-9.385271072387695,-2.7509377002716064
1750064041033854700,19.367854736328123,0.31364041566848755,-9.361329078674316,-2.760514497756958
1750064041049815300,19.383815185546876,0.31603461503982544,-9.351752281188965,-2.806004285812378
1750064041065776000,19.399776123046873,0.2968810200691223,-9.32302188873291,-2.7676970958709717
1750064041081767400,19.415767333984373,0.28730419278144836,-9.361329078674316,-2.691082715988159
1750064041097819600,19.431819580078123,0.22266076505184174,-9.354146003723145,-2.715024709701538
1750064041113810700,19.447810791015623,0.17717093229293823,-9.315838813781738,-2.7772738933563232
1750064041129741000,19.463740966796873,0.1604115068912506,-9.320627212524414,-2.760514497756958
1750064041145671200,19.479671142578123,0.2513911724090576,-9.366117477416992,-2.782062292098999
1750064041161631700,19.4956318359375,0.2849099934101105,-9.397241592407227,-2.7988216876983643
1750064041177653500,19.511653564453123,0.31364041566848755,-9.464279174804688,-2.7724854946136475
1750064041193644800,19.527644775390623,0.2849099934101105,-9.473855972290039,-2.7700912952423096
1750064041209605400,19.54360546875,0.24420857429504395,-9.430760383605957,-2.7748796939849854
1750064041225535700,19.55953564453125,0.26096799969673157,-9.394847869873047,-2.75812029838562
1750064041241557200,19.57555712890625,0.3064578175544739,-9.411606788635254,-2.762908697128296
1750064041257579000,19.5915791015625,0.3471592366695404,-9.378087997436523,-2.80361008644104
1750064041273570300,19.6075703125,0.35673606395721436,-9.265560150146484,-2.779668092727661
1750064041289531000,19.62353076171875,0.36152446269989014,-9.222464561462402,-2.7485435009002686
1750064041305552600,19.639552734375,0.38067805767059326,-9.227252960205078,-2.7892448902130127
1750064041321544000,19.6555439453125,0.40462008118629456,-9.215282440185547,-2.868253707885742
1750064041337504500,19.67150439453125,0.4141969084739685,-9.229647636413574,-2.9328970909118652
1750064041353526300,19.6875263671875,0.4357447028160095,-9.277531623840332,-2.9544448852539062
1750064041369517600,19.703517578125,0.4620809257030487,-9.296685218811035,-2.9233202934265137
1750064041385539300,19.719539306640623,0.45010992884635925,-9.387664794921875,-2.849100112915039
1750064041401469400,19.735469482421873,0.3687070608139038,-9.437943458557129,-2.7676970958709717
1750064041417460700,19.751460693359373,0.24660277366638184,-9.459490776062012,-2.762908697128296
1750064041441386500,19.775386474609373,0.1843535304069519,-9.519346237182617,-2.75812029838562
1750064041457408300,19.791408203125,0.1843535304069519,-9.550470352172852,-2.7724854946136475
1750064041473399300,19.8073994140625,0.2585737705230713,-9.473855972290039,-2.7461493015289307
1750064041489360100,19.823360107421873,0.2825157940387726,-9.35893440246582,-2.6599581241607666
1750064041505320700,19.83932080078125,0.26336219906806946,-9.3828763961792,-2.542642116546631
1750064041529338000,19.863338134765623,0.12928688526153564,-9.373299598693848,-2.4612393379211426
1750064041545390300,19.879390380859373,0.05267243832349777,-9.361329078674316,-2.408566951751709
1750064041561351200,19.89535107421875,0.07661445438861847,-9.406818389892578,-2.4229321479797363
1750064041577311700,19.911311767578123,0.17717093229293823,-9.361329078674316,-2.5306711196899414
1750064041593333500,19.92733349609375,0.3208230137825012,-9.334992408752441,-2.6815059185028076
1750064041609324800,19.94332470703125,0.40701428055763245,-9.41639518737793,-2.8107926845550537
1750064041625285400,19.959285400390623,0.4118026793003082,-9.454702377319336,-2.87064790725708
1750064041641276700,19.975276611328123,0.4405331015586853,-9.3828763961792,-2.9712042808532715
1750064041657298400,19.99129833984375,0.4357447028160095,-9.339780807495117,-2.894589900970459
1750064041673289500,20.00728955078125,0.4812345504760742,-9.375694274902344,-2.9017724990844727
1750064041689250300,20.023250244140623,0.5291185975074768,-9.41639518737793,-2.8586769104003906
1750064041705180400,20.039180419921873,0.545877993106842,-9.473855972290039,-2.806004285812378
1750064041721171700,20.055171630859373,0.5291185975074768,-9.516951560974121,-2.717418909072876
1750064041737193200,20.071193115234376,0.47644615173339844,-9.509769439697266,-2.6360161304473877
1750064041753184500,20.0871845703125,0.3878606855869293,-9.452308654785156,-2.5115175247192383
1750064041769145300,20.103145263671873,0.35434186458587646,-9.411606788635254,-2.3367409706115723
1750064041785106000,20.11910595703125,0.26815059781074524,-9.346963882446289,-2.279279947280884
1750064041801097200,20.13509716796875,0.22266076505184174,-9.284713745117188,-2.2409727573394775
1750064041817027300,20.15102734375,0.17956513166427612,-9.279925346374512,-2.1595699787139893
1750064041833018600,20.1670185546875,0.15801730751991272,-9.339780807495117,-2.2026655673980713
1750064041849009700,20.183009765625,0.16759411990642548,-9.390059471130371,-2.3295583724975586
1750064041865001000,20.1990009765625,0.2298433631658554,-9.48343276977539,-2.4133553504943848
1750064041880931000,20.21493115234375,0.2537853717803955,-9.512163162231445,-2.5091233253479004
1750064041896952800,20.230952880859373,0.3064578175544739,-9.514557838439941,-2.655169725418091
1750064041912944000,20.246944091796873,0.2968810200691223,-9.593565940856934,-2.8107926845550537
1750064041928874200,20.262874267578123,0.27054479718208313,-9.605537414550781,-2.8874073028564453
1750064041944804400,20.278804443359373,0.304063618183136,-9.57441234588623,-2.9520506858825684
1750064041960826000,20.294826171875,0.304063618183136,-9.423578262329102,-3.043030261993408
1750064041976848000,20.310847900390623,0.30885201692581177,-9.272743225097656,-3.0382418632507324
1750064041992839200,20.326839111328123,0.3016694188117981,-9.196128845214844,-3.0142998695373535
1750064042008799700,20.3427998046875,0.22026655077934265,-9.093177795410156,-3.0550012588500977
1750064042024760600,20.358760498046873,0.16519992053508759,-9.074024200439453,-3.071760892868042
1750064042040721200,20.37472119140625,0.14844051003456116,-9.107542991638184,-3.045424461364746
1750064042056712400,20.39071240234375,0.22505496442317963,-9.186552047729492,-3.0382418632507324
1750064042072642600,20.406642578125,0.30885201692581177,-9.327810287475586,-2.918531894683838
1750064042088664300,20.422664306640623,0.3758896589279175,-9.421183586120605,-2.8562827110290527
1750064042104655600,20.438655517578123,0.35673606395721436,-9.531316757202148,-2.7461493015289307
1750064042120616200,20.4546162109375,0.31364041566848755,-9.583989143371582,-2.612074136734009
1750064042136607500,20.470607421875,0.24899697303771973,-9.617507934570312,-2.4851813316345215
1750064042152507100,20.486507080078123,0.2106897532939911,-9.648633003234863,-2.3726539611816406
1750064042168529000,20.50252880859375,0.17238251864910126,-9.66299819946289,-2.3295583724975586
1750064042184550400,20.51855029296875,0.17956513166427612,-9.600749015808105,-2.231395959854126
1750064042200511200,20.53451123046875,0.22026655077934265,-9.512163162231445,-2.0901381969451904
1750064042216502500,20.55050244140625,0.21547815203666687,-9.35654067993164,-2.0685901641845703
1750064042232432600,20.5664326171875,0.1604115068912506,-9.275136947631836,-2.099714994430542
1750064042248424000,20.582423828125,0.08379705995321274,-9.282320022583008,-2.2146365642547607
1750064042264445400,20.598445556640623,0.05985504388809204,-9.35893440246582,-2.3487119674682617
1750064042280406300,20.61440625,0.12449848651885986,-9.466673851013184,-2.473210334777832
1750064042296336400,20.63033642578125,0.2082955539226532,-9.493009567260742,-2.5450363159179688
1750064042312388600,20.646388671875,0.2513911724090576,-9.435548782348633,-2.671929121017456
1750064042328380000,20.6623798828125,0.24899697303771973,-9.406818389892578,-2.762908697128296
1750064042344432000,20.67843212890625,0.23702596127986908,-9.344569206237793,-2.8443117141723633
1750064042360392700,20.694392822265623,0.22505496442317963,-9.35654067993164,-2.9496564865112305
1750064042376384000,20.710384033203123,0.2059013396501541,-9.387664794921875,-3.0550012588500977
1750064042392375300,20.726375244140623,0.2322375625371933,-9.368511199951172,-3.1459810733795166
