time,seconds_elapsed,z,y,x
1747237103755059200,0.01505908203125,-0.97918701171875,-0.2357940673828125,0.1514892578125
1747237103765090300,0.02509033203125,-0.9798736572265625,-0.2289581298828125,0.1420135498046875
1747237103775121200,0.03512109375,-0.9680938720703125,-0.2280120849609375,0.1392974853515625
1747237103785152300,0.04515234375,-0.9445037841796875,-0.2298736572265625,0.14276123046875
1747237103795183400,0.055183349609375,-0.924957275390625,-0.2333831787109375,0.1491241455078125
1747237103805214500,0.06521435546875,-0.9151153564453125,-0.2385406494140625,0.15838623046875
1747237103815244300,0.075244384765625,-0.9215240478515625,-0.243682861328125,0.1603546142578125
1747237103825275400,0.085275390625,-0.934967041015625,-0.2459716796875,0.163299560546875
1747237103835306500,0.095306396484375,-0.9485015869140625,-0.245513916015625,0.169158935546875
1747237103845337300,0.10533740234375,-0.9511566162109375,-0.2502288818359375,0.1799163818359375
1747237103855368400,0.115368408203125,-0.9471588134765625,-0.2561187744140625,0.1805572509765625
1747237103865399300,0.1253994140625,-0.922088623046875,-0.2621307373046875,0.16766357421875
1747237103875430400,0.135430419921875,-0.8877410888671875,-0.2610015869140625,0.160064697265625
1747237103885461200,0.145461181640625,-0.8663330078125,-0.265594482421875,0.1583709716796875
1747237103895492400,0.155492431640625,-0.863250732421875,-0.2733001708984375,0.1600799560546875
1747237103905522400,0.1655224609375,-0.8730010986328125,-0.2790069580078125,0.157135009765625
1747237103915553300,0.17555322265625,-0.88482666015625,-0.27435302734375,0.14752197265625
1747237103925584400,0.18558447265625,-0.8871307373046875,-0.2669830322265625,0.133544921875
1747237103935615200,0.195615234375,-0.880889892578125,-0.2571563720703125,0.129241943359375
1747237103945646300,0.205646240234375,-0.883941650390625,-0.24749755859375,0.1300201416015625
1747237103955677200,0.21567724609375,-0.9061737060546875,-0.2457427978515625,0.132781982421875
1747237103965708300,0.225708251953125,-0.9485015869140625,-0.2437896728515625,0.13916015625
1747237103975739100,0.2357392578125,-1.0051422119140625,-0.2354736328125,0.1391143798828125
1747237103985770200,0.245770263671875,-1.054473876953125,-0.2219696044921875,0.1277313232421875
1747237103995800300,0.25580029296875,-1.0693817138671875,-0.1992034912109375,0.1107025146484375
1747237104005831200,0.2658310546875,-1.056640625,-0.1719512939453125,0.0777435302734375
1747237104015862300,0.2758623046875,-1.02752685546875,-0.1507110595703125,0.05975341796875
1747237104025893000,0.28589306640625,-0.9967041015625,-0.1361236572265625,0.028076171875
1747237104035924200,0.29592431640625,-0.965057373046875,-0.152435302734375,-0.00390625
1747237104045955300,0.305955322265625,-0.9368743896484375,-0.199249267578125,-0.0025787353515625
1747237104055986400,0.315986328125,-0.931121826171875,-0.2543487548828125,0.0232086181640625
1747237104066017300,0.326017333984375,-0.93377685546875,-0.2958526611328125,0.03271484375
1747237104076048400,0.33604833984375,-0.920257568359375,-0.304901123046875,0.025909423828125
1747237104086078500,0.346078369140625,-0.8967742919921875,-0.2694549560546875,0.0014495849609375
1747237104096109300,0.356109375,-0.8779449462890625,-0.214141845703125,-0.0306243896484375
1747237104106140400,0.366140380859375,-0.885406494140625,-0.1575927734375,-0.039947509765625
1747237104116171300,0.376171142578125,-0.92657470703125,-0.1162872314453125,-0.029144287109375
1747237104126202400,0.386202392578125,-0.99127197265625,-0.102752685546875,-0.0206298828125
1747237104136233200,0.396233154296875,-1.075469970703125,-0.1043853759765625,-0.020263671875
1747237104146264300,0.406264404296875,-1.13665771484375,-0.1141204833984375,-0.032958984375
1747237104156295400,0.41629541015625,-1.1347808837890625,-0.136932373046875,-0.07000732421875
1747237104166326300,0.426326171875,-1.1074981689453125,-0.1605224609375,-0.1105194091796875
1747237104176356400,0.4363564453125,-1.085357666015625,-0.165802001953125,-0.1253204345703125
1747237104186387200,0.44638720703125,-1.08721923828125,-0.14788818359375,-0.09344482421875
1747237104196418300,0.456418212890625,-1.092864990234375,-0.1268157958984375,-0.035552978515625
1747237104206449200,0.46644921875,-1.07879638671875,-0.1093902587890625,0.0064544677734375
1747237104216480300,0.476480224609375,-1.039276123046875,-0.089508056640625,0.012939453125
1747237104226511400,0.486511474609375,-0.998504638671875,-0.06268310546875,0.017547607421875
1747237104236542200,0.496542236328125,-0.9683380126953125,-0.0459136962890625,0.034881591796875
1747237104246573300,0.5065732421875,-0.9265594482421875,-0.0500335693359375,0.04229736328125
1747237104256604200,0.516604248046875,-0.8965301513671875,-0.1045379638671875,0.036590576171875
1747237104266634200,0.52663427734375,-0.8904571533203125,-0.1851959228515625,0.020965576171875
1747237104276665000,0.5366650390625,-0.8722381591796875,-0.2161712646484375,0.0142059326171875
1747237104286696200,0.5466962890625,-0.850433349609375,-0.190643310546875,0.034576416015625
1747237104296727300,0.556727294921875,-0.8340301513671875,-0.161041259765625,0.07977294921875
1747237104306758100,0.566758056640625,-0.82452392578125,-0.13543701171875,0.1374053955078125
1747237104316789200,0.576789306640625,-0.8327789306640625,-0.11431884765625,0.182586669921875
1747237104326820000,0.586820068359375,-0.8540802001953125,-0.104736328125,0.1966400146484375
1747237104336851200,0.596851318359375,-0.8908843994140625,-0.0496368408203125,0.1209716796875
1747237104346882300,0.60688232421875,-0.9364013671875,0.026092529296875,0.0173492431640625
1747237104356913400,0.616913330078125,-0.9873046875,0.055450439453125,-0.008514404296875
1747237104366943200,0.626943115234375,-1.0389556884765625,0.0113677978515625,0.03228759765625
1747237104376974300,0.636974365234375,-1.061126708984375,-0.0425872802734375,0.0731658935546875
1747237104387005400,0.64700537109375,-1.027923583984375,-0.038970947265625,0.0886077880859375
1747237104397036300,0.657036376953125,-1.0494537353515625,-0.087982177734375,0.08807373046875
1747237104407067400,0.6670673828125,-1.147216796875,-0.195770263671875,0.02880859375
1747237104417098200,0.67709814453125,-1.0192108154296875,-0.0960693359375,-0.00054931640625
1747237104427129300,0.68712939453125,-0.943359375,-0.0754547119140625,-0.028472900390625
1747237104437160200,0.69716015625,-0.8827056884765625,-0.1332550048828125,-0.0303497314453125
1747237104447191300,0.70719140625,-0.8690338134765625,-0.1387786865234375,0.01788330078125
1747237104457222100,0.71722216796875,-0.9062957763671875,-0.1078338623046875,0.0968475341796875
1747237104467252200,0.727252197265625,-0.9777984619140625,-0.0554046630859375,0.152374267578125
1747237104477283300,0.737283447265625,-1.0662078857421875,0.0156707763671875,0.134429931640625
1747237104487314200,0.747314208984375,-1.1503143310546875,0.0707855224609375,0.096588134765625
1747237104497345300,0.75734521484375,-1.212799072265625,0.080230712890625,0.102142333984375
1747237104507376000,0.767376220703125,-1.233489990234375,0.0366363525390625,0.13812255859375
1747237104517407200,0.7774072265625,-1.2171630859375,-0.0304718017578125,0.134521484375
1747237104527438000,0.78743798828125,-1.17138671875,-0.048675537109375,0.06298828125
1747237104537469200,0.79746923828125,-1.1310272216796875,-0.045654296875,-0.038177490234375
1747237104547500000,0.8075,-1.12384033203125,-0.0772552490234375,-0.086029052734375
1747237104557531100,0.81753125,-1.1791229248046875,-0.168670654296875,-0.078094482421875
1747237104567561200,0.827561279296875,-1.2340545654296875,-0.2440032958984375,-0.0589599609375
1747237104577592000,0.837592041015625,-1.273895263671875,-0.2152099609375,-0.025543212890625
1747237104587623200,0.847623046875,-1.303253173828125,-0.1839599609375,0.0124969482421875
1747237104597654300,0.857654296875,-1.30853271484375,-0.136444091796875,0.0304718017578125
1747237104607685400,0.867685302734375,-1.2813568115234375,-0.204742431640625,0.003143310546875
1747237104617716200,0.87771630859375,-1.2029876708984375,-0.3828125,-0.033294677734375
1747237104627747300,0.887747314453125,-1.0713958740234375,-0.35382080078125,0.0027313232421875
1747237104637778200,0.897778076171875,-0.925537109375,-0.3094940185546875,0.0025787353515625
1747237104647809300,0.907809326171875,-0.8207244873046875,-0.3139190673828125,0.00738525390625
1747237104657839400,0.91783935546875,-0.638458251953125,-0.343505859375,0.0506744384765625
1747237104667870200,0.9278701171875,-0.466094970703125,-0.33013916015625,0.1364593505859375
1747237104677901300,0.9379013671875,-0.37451171875,-0.2562255859375,0.2800140380859375
1747237104687932200,0.94793212890625,-0.3099822998046875,-0.032318115234375,0.50775146484375
1747237104697963300,0.95796337890625,-0.2849273681640625,0.05279541015625,0.685211181640625
1747237104707994000,0.967994140625,-0.395111083984375,-0.1241302490234375,0.7102508544921875
1747237104718025200,0.978025146484375,-0.76031494140625,-0.202117919921875,0.54388427734375
1747237104728056300,0.988056396484375,-1.09698486328125,-0.2203216552734375,0.3752899169921875
1747237104738087200,0.998087158203125,-1.180755615234375,-0.2710113525390625,0.2822265625
1747237104748118300,1.0081181640625,-1.025238037109375,-0.2829437255859375,0.2343292236328125
1747237104758148000,1.018148193359375,-0.7451934814453125,-0.2330169677734375,0.2297821044921875
1747237104768179200,1.02817919921875,-0.610748291015625,-0.1798095703125,0.2937164306640625
1747237104778210000,1.0382099609375,-0.6920928955078125,-0.1524658203125,0.3667755126953125
1747237104788241200,1.0482412109375,-0.728179931640625,-0.136077880859375,0.3705902099609375
1747237104798272300,1.058272216796875,-0.7421417236328125,-0.181121826171875,0.3058319091796875
1747237104808303000,1.06830322265625,-0.706329345703125,-0.2048492431640625,0.2053680419921875
1747237104818334500,1.07833447265625,-0.6218414306640625,-0.1849822998046875,0.132232666015625
1747237104828365300,1.088365234375,-0.597686767578125,-0.129791259765625,0.188201904296875
1747237104838396400,1.098396484375,-0.9796295166015625,-0.0807952880859375,0.390411376953125
1747237104848427300,1.10842724609375,-0.932342529296875,-0.0804901123046875,0.3297576904296875
1747237104858458400,1.118458251953125,-0.9551849365234375,-0.068023681640625,0.0791473388671875
1747237104868488200,1.12848828125,-1.0233612060546875,-0.0474395751953125,-0.0838623046875
1747237104878519300,1.138519287109375,-1.0550994873046875,-0.0565185546875,-0.1781158447265625
1747237104888550400,1.14855029296875,-1.1475830078125,-0.0867919921875,-0.233642578125
1747237104898581200,1.158581298828125,-1.206695556640625,-0.071136474609375,-0.2347564697265625
1747237104908612400,1.1686123046875,-1.2418670654296875,0.0111236572265625,-0.171905517578125
1747237104918643200,1.178643310546875,-1.2848663330078125,0.04241943359375,-0.1020050048828125
1747237104928674300,1.18867431640625,-1.298065185546875,0.019989013671875,-0.0789337158203125
1747237104938705200,1.198705078125,-1.2460784912109375,0.0115509033203125,-0.07574462890625
1747237104948736300,1.208736328125,-1.1582794189453125,0.014404296875,-0.0755157470703125
1747237104958767000,1.21876708984375,-1.09796142578125,0.014495849609375,-0.08624267578125
1747237104968797200,1.228797119140625,-1.1271209716796875,-0.0089263916015625,-0.1240692138671875
1747237104978828300,1.238828369140625,-1.2132720947265625,-0.0295562744140625,-0.1922454833984375
1747237104988859100,1.248859130859375,-1.21923828125,0.010162353515625,0.0296630859375
1747237104998890200,1.25889013671875,-1.25738525390625,-0.057098388671875,0.14532470703125
1747237105008921000,1.268921142578125,-1.285308837890625,-0.0513763427734375,0.001800537109375
1747237105018952200,1.2789521484375,-1.2469940185546875,-0.014892578125,-0.2090911865234375
1747237105028983000,1.288983154296875,-1.17510986328125,-0.061126708984375,-0.2212982177734375
1747237105039014400,1.299014404296875,-1.124664306640625,-0.0556640625,-0.1937255859375
1747237105049045200,1.309045166015625,-1.14404296875,-0.0408172607421875,-0.194793701171875
1747237105059076400,1.319076416015625,-1.2434844970703125,-0.1284027099609375,-0.2235870361328125
1747237105069106400,1.3291064453125,-1.2984161376953125,-0.1729888916015625,-0.3548583984375
1747237105079137300,1.33913720703125,-1.2939605712890625,-0.18231201171875,-0.316802978515625
1747237105089168400,1.34916845703125,-1.257232666015625,-0.154815673828125,-0.20770263671875
1747237105099199200,1.35919921875,-1.0067138671875,-0.09661865234375,-0.1708831787109375
1747237105109230300,1.369230224609375,-0.5340728759765625,-0.111419677734375,-0.2369384765625
1747237105119261200,1.37926123046875,-0.5169677734375,-0.2991943359375,-0.2570343017578125
1747237105129292300,1.389292236328125,-0.6742401123046875,-0.35284423828125,-0.2125091552734375
1747237105139323100,1.3993232421875,-0.659698486328125,-0.2895660400390625,-0.3419342041015625
1747237105149354200,1.409354248046875,-0.7614898681640625,-0.318328857421875,-0.4029998779296875
1747237105159385000,1.419385009765625,-0.849945068359375,-0.3079071044921875,-0.3260650634765625
1747237105169416200,1.429416259765625,-0.8578033447265625,-0.2565765380859375,-0.3355712890625
1747237105179446300,1.4394462890625,-0.9008941650390625,-0.229644775390625,-0.2743682861328125
1747237105189477000,1.44947705078125,-0.9264068603515625,-0.25384521484375,-0.1746368408203125
1747237105199508200,1.45950830078125,-0.8254852294921875,-0.322265625,-0.2510223388671875
1747237105209539000,1.4695390625,-0.765838623046875,-0.3766632080078125,-0.234710693359375
1747237105219570200,1.479570068359375,-0.72088623046875,-0.3883819580078125,-0.2577362060546875
1747237105229601000,1.48960107421875,-0.7000579833984375,-0.3783416748046875,-0.2784576416015625
1747237105239632100,1.499632080078125,-0.6787109375,-0.3788299560546875,-0.3176116943359375
1747237105249663200,1.509663330078125,-0.6676788330078125,-0.3506317138671875,-0.2993927001953125
1747237105259694300,1.5196943359375,-0.7794952392578125,-0.40618896484375,-0.497589111328125
1747237105269725400,1.529725341796875,-0.94744873046875,-0.3582916259765625,-0.5215911865234375
1747237105279755000,1.539755126953125,-0.9652252197265625,-0.3924407958984375,-0.4578704833984375
1747237105289786400,1.549786376953125,-0.8513641357421875,-0.4336700439453125,-0.4361114501953125
1747237105299817500,1.5598173828125,-0.7990570068359375,-0.4002532958984375,-0.375030517578125
1747237105309848600,1.5698486328125,-0.80584716796875,-0.38397216796875,-0.362579345703125
1747237105319879400,1.57987939453125,-0.8364715576171875,-0.3794097900390625,-0.4051055908203125
1747237105329910500,1.58991064453125,-0.838623046875,-0.3774566650390625,-0.4239654541015625
1747237105339941400,1.59994140625,-0.77923583984375,-0.4293365478515625,-0.4475555419921875
1747237105349972500,1.609972412109375,-0.7151641845703125,-0.4514007568359375,-0.5439605712890625
1747237105360003600,1.620003662109375,-0.7126312255859375,-0.463043212890625,-0.5966949462890625
1747237105370034700,1.63003466796875,-0.7218017578125,-0.479888916015625,-0.6032867431640625
1747237105380065800,1.640065673828125,-0.7083587646484375,-0.4626312255859375,-0.5470123291015625
1747237105390095600,1.650095703125,-0.6909027099609375,-0.4298858642578125,-0.4455718994140625
1747237105400126700,1.660126708984375,-0.7347564697265625,-0.40167236328125,-0.4082489013671875
1747237105410157600,1.670157470703125,-0.7706146240234375,-0.354644775390625,-0.4265594482421875
1747237105420188700,1.680188720703125,-0.748138427734375,-0.341033935546875,-0.3873748779296875
1747237105430219800,1.6902197265625,-0.696380615234375,-0.3683319091796875,-0.31829833984375
1747237105440250600,1.700250732421875,-0.7039337158203125,-0.310638427734375,-0.3051910400390625
1747237105450281700,1.71028173828125,-0.8459014892578125,-0.182281494140625,-0.4425506591796875
1747237105460312600,1.7203125,-1.0252227783203125,-0.2592620849609375,-0.496307373046875
1747237105470343700,1.73034375,-1.0500640869140625,-0.34130859375,-0.456085205078125
1747237105480374500,1.74037451171875,-1.03277587890625,-0.3241424560546875,-0.54302978515625
1747237105490404600,1.750404541015625,-1.00762939453125,-0.2261505126953125,-0.5905303955078125
1747237105500435700,1.760435791015625,-0.9352264404296875,-0.17095947265625,-0.5173492431640625
1747237105510466600,1.770466552734375,-0.9079742431640625,-0.2279510498046875,-0.1362152099609375
1747237105520497700,1.78049755859375,-0.8990020751953125,-0.2946319580078125,-0.043975830078125
1747237105530528500,1.790528564453125,-0.87750244140625,-0.2656707763671875,-0.18841552734375
1747237105540559600,1.8005595703125,-0.960693359375,-0.2359161376953125,-0.2722625732421875
1747237105550590500,1.810590576171875,-1.13714599609375,-0.2371368408203125,-0.37518310546875
1747237105560621600,1.82062158203125,-1.20904541015625,-0.279693603515625,-0.536163330078125
1747237105570652400,1.83065234375,-1.115203857421875,-0.318450927734375,-0.49542236328125
1747237105580683800,1.840683837890625,-0.9659881591796875,-0.314453125,-0.45477294921875
1747237105590714600,1.850714599609375,-0.8408660888671875,-0.327545166015625,-0.44287109375
1747237105600744400,1.860744384765625,-0.769287109375,-0.3328704833984375,-0.3837432861328125
1747237105610775800,1.87077587890625,-0.755615234375,-0.3396148681640625,-0.4140625
1747237105620806700,1.880806640625,-0.799468994140625,-0.3415069580078125,-0.4802398681640625
1747237105630837800,1.890837646484375,-0.8819427490234375,-0.346649169921875,-0.4998779296875
1747237105640868600,1.90086865234375,-0.9258270263671875,-0.314788818359375,-0.5002288818359375
1747237105650899700,1.910899658203125,-0.9150238037109375,-0.3002471923828125,-0.5092620849609375
1747237105660930600,1.9209306640625,-0.8618316650390625,-0.3191070556640625,-0.5118560791015625
1747237105670961700,1.930961669921875,-0.8059844970703125,-0.3691253662109375,-0.4971160888671875
1747237105680992500,1.940992431640625,-0.7417144775390625,-0.3890533447265625,-0.4626617431640625
1747237105691023600,1.951023681640625,-0.70281982421875,-0.34698486328125,-0.4065704345703125
1747237105701053700,1.9610537109375,-0.7568206787109375,-0.2539520263671875,-0.40679931640625
1747237105711084500,1.97108447265625,-0.820587158203125,-0.2241973876953125,-0.3964996337890625
1747237105721115600,1.98111572265625,-0.85565185546875,-0.301910400390625,-0.3114013671875
1747237105731146500,1.991146484375,-0.894134521484375,-0.332305908203125,-0.2490234375
1747237105741177600,2.001177490234375,-0.9415740966796875,-0.292236328125,-0.2483673095703125
1747237105751208400,2.01120849609375,-0.9304962158203125,-0.2589111328125,-0.26416015625
1747237105761239600,2.021239501953125,-0.8819732666015625,-0.243377685546875,-0.25994873046875
1747237105771270400,2.0312705078125,-0.7776336669921875,-0.22076416015625,-0.2378997802734375
1747237105781301500,2.041301513671875,-0.68145751953125,-0.23382568359375,-0.1502838134765625
1747237105791332600,2.05133251953125,-0.64947509765625,-0.22161865234375,-0.139678955078125
1747237105801362400,2.061362548828125,-0.7308349609375,-0.1815032958984375,-0.1581878662109375
1747237105811393500,2.0713935546875,-0.8459014892578125,-0.173187255859375,-0.1119842529296875
1747237105821424400,2.08142431640625,-0.9585418701171875,-0.176483154296875,-0.028472900390625
1747237105831455700,2.091455810546875,-1.03759765625,-0.110015869140625,-0.046234130859375
1747237105841486600,2.101486572265625,-1.114349365234375,0.004852294921875,-0.0588836669921875
1747237105851517700,2.111517578125,-1.15521240234375,0.110931396484375,-0.018463134765625
1747237105861548500,2.121548583984375,-1.1326141357421875,0.1981658935546875,0.0574493408203125
1747237105871579600,2.13157958984375,-1.0587615966796875,0.2146453857421875,0.125457763671875
1747237105881610800,2.14161083984375,-0.9834136962890625,0.164642333984375,0.1754608154296875
1747237105891641600,2.1516416015625,-0.9544677734375,0.0970916748046875,0.192840576171875
1747237105901672700,2.161672607421875,-0.9516754150390625,0.0422515869140625,0.1389007568359375
1747237105911702500,2.17170263671875,-0.9750823974609375,-0.0195465087890625,0.126953125
1747237105921733600,2.181733642578125,-1.002227783203125,-0.0722808837890625,0.139984130859375
1747237105931764500,2.191764404296875,-1.0106964111328125,-0.1033782958984375,0.1580047607421875
1747237105941795600,2.201795654296875,-0.991363525390625,-0.084075927734375,0.1826324462890625
1747237105951826700,2.21182666015625,-0.980377197265625,-0.030426025390625,0.229278564453125
1747237105961857500,2.221857421875,-0.9770965576171875,0.017730712890625,0.2506866455078125
1747237105971888600,2.231888671875,-0.95068359375,0.0587005615234375,0.23687744140625
1747237105981919500,2.24191943359375,-0.907745361328125,0.0943145751953125,0.2296142578125
1747237105991950600,2.25195068359375,-0.8505096435546875,0.10546875,0.22930908203125
1747237106001981400,2.2619814453125,-0.786102294921875,0.1017913818359375,0.23590087890625
1747237106012011500,2.272011474609375,-0.7249603271484375,0.0665283203125,0.2364959716796875
1747237106022042600,2.282042724609375,-0.6970367431640625,-0.0094146728515625,0.250885009765625
1747237106032073500,2.292073486328125,-0.72137451171875,-0.0656585693359375,0.3184051513671875
1747237106042104600,2.3021044921875,-0.8485107421875,-0.032073974609375,0.4251556396484375
1747237106052135700,2.3121357421875,-1.00982666015625,0.0587310791015625,0.5411224365234375
1747237106062166800,2.322166748046875,-1.1140289306640625,0.1607818603515625,0.6364898681640625
1747237106072197600,2.33219775390625,-1.0770263671875,0.2279205322265625,0.7275238037109375
1747237106082228700,2.342228759765625,-0.9237518310546875,0.2074432373046875,0.79449462890625
1747237106092259600,2.352259521484375,-0.78289794921875,0.1214141845703125,0.7072906494140625
1747237106102290700,2.362290771484375,-0.6871337890625,0.056610107421875,0.526885986328125
1747237106112320800,2.37232080078125,-0.650787353515625,-0.020477294921875,0.390869140625
1747237106122351600,2.3823515625,-0.6389312744140625,-0.085235595703125,0.2856903076171875
1747237106132382700,2.3923828125,-0.603118896484375,-0.0897369384765625,0.202545166015625
1747237106142413600,2.40241357421875,-0.57464599609375,-0.01171875,0.1732635498046875
1747237106152444700,2.412444580078125,-0.576263427734375,0.087493896484375,0.229095458984375
1747237106162475500,2.4224755859375,-0.60418701171875,0.168060302734375,0.29669189453125
1747237106172506600,2.432506591796875,-0.6545257568359375,0.259613037109375,0.350250244140625
1747237106182537500,2.442537353515625,-0.697235107421875,0.33697509765625,0.4173736572265625
1747237106192568600,2.452568603515625,-0.7369384765625,0.3951568603515625,0.470123291015625
1747237106202599400,2.462599365234375,-0.78955078125,0.434906005859375,0.472259521484375
1747237106212630500,2.472630615234375,-0.8765411376953125,0.4428558349609375,0.3912811279296875
1747237106222660600,2.48266064453125,-1.2185516357421875,0.2769622802734375,-0.15802001953125
1747237106232691500,2.49269140625,-1.72503662109375,-0.0055084228515625,-0.477142333984375
1747237106242722600,2.50272265625,-2.1693267822265625,-0.1678314208984375,-0.5988006591796875
1747237106252753400,2.51275341796875,-2.5206298828125,-0.298583984375,-0.5625
1747237106262784800,2.52278466796875,-2.33197021484375,-0.388641357421875,-0.292694091796875
1747237106272815600,2.532815673828125,-1.4602203369140625,-0.145660400390625,0.0335235595703125
1747237106282846700,2.5428466796875,-1.02752685546875,0.149444580078125,0.2706146240234375
1747237106292877600,2.552877685546875,-1.3778076171875,0.03131103515625,0.4495697021484375
1747237106302908700,2.56290869140625,-1.341552734375,0.0242919921875,0.552825927734375
1747237106312939500,2.572939453125,-1.1617889404296875,0.0499420166015625,0.5581512451171875
1747237106322969600,2.582969482421875,-0.8980560302734375,0.001861572265625,0.519500732421875
1747237106333000700,2.593000732421875,-0.75347900390625,-0.0958404541015625,0.4975738525390625
1747237106343031600,2.603031494140625,-0.7634124755859375,-0.1247711181640625,0.57391357421875
1747237106353062700,2.613062744140625,-0.628997802734375,-0.023162841796875,0.6937408447265625
1747237106363093500,2.623093505859375,-0.6490478515625,0.11859130859375,0.924468994140625
1747237106373124600,2.63312451171875,-0.6507110595703125,0.2264404296875,1.1110382080078125
1747237106383155700,2.64315576171875,-0.497833251953125,0.2816314697265625,1.0528106689453125
1747237106393186600,2.6531865234375,-0.367523193359375,0.23956298828125,0.910614013671875
1747237106403218000,2.663218017578125,-0.3262481689453125,0.1744384765625,0.734588623046875
1747237106413248800,2.673248779296875,-0.4805908203125,0.12432861328125,0.5481414794921875
1747237106423278600,2.683278564453125,-0.7836761474609375,0.0512542724609375,0.434661865234375
1747237106433309700,2.693309814453125,-0.769775390625,0.1079559326171875,0.517303466796875
1747237106443340800,2.7033408203125,-0.6643829345703125,0.1726531982421875,0.710906982421875
1747237106453371600,2.71337158203125,-0.52447509765625,0.248138427734375,0.85943603515625
1747237106463402800,2.72340283203125,-0.6674346923828125,0.20245361328125,0.8628082275390625
1747237106473433900,2.733433837890625,-0.7057952880859375,0.10888671875,0.7246856689453125
1747237106483464700,2.743464599609375,-0.7158966064453125,-0.025421142578125,0.5559844970703125
1747237106493495800,2.753495849609375,-0.8084564208984375,-0.1367950439453125,0.485260009765625
1747237106503526700,2.763526611328125,-0.95770263671875,-0.1336669921875,0.4882965087890625
1747237106513557800,2.773557861328125,-0.8485565185546875,-0.054443359375,0.547607421875
1747237106523587600,2.783587646484375,-0.7368316650390625,-0.001251220703125,0.628814697265625
1747237106533618700,2.79361865234375,-0.6884613037109375,0.0241851806640625,0.6386566162109375
1747237106543649800,2.80364990234375,-0.6953582763671875,0.033111572265625,0.6239166259765625
1747237106553680600,2.8136806640625,-0.726837158203125,-0.0044403076171875,0.55743408203125
1747237106563711700,2.823711669921875,-1.0806732177734375,-0.7315826416015625,0.4410858154296875
1747237106573742600,2.83374267578125,-0.8657684326171875,-0.562103271484375,0.17340087890625
1747237106583773700,2.843773681640625,-0.8304443359375,-0.084075927734375,0.5453643798828125
1747237106593804500,2.853804443359375,-0.9505767822265625,-0.17864990234375,0.82318115234375
1747237106603835600,2.863835693359375,-0.68438720703125,0.05169677734375,0.958770751953125
1747237106613866500,2.873866455078125,-0.805633544921875,0.078948974609375,0.9399261474609375
1747237106623896600,2.883896484375,-0.8379974365234375,-0.046356201171875,0.72991943359375
1747237106633927700,2.893927734375,-0.94287109375,-0.2551422119140625,0.44439697265625
1747237106643958500,2.90395849609375,-0.9711761474609375,-0.4591827392578125,0.145050048828125
1747237106653990000,2.913989990234375,-0.9286346435546875,-0.663848876953125,-0.1522216796875
1747237106664020700,2.924020751953125,-0.85546875,-0.8160247802734375,-0.322113037109375
1747237106674051800,2.9340517578125,-0.7677154541015625,-0.771697998046875,-0.35833740234375
1747237106684082700,2.944082763671875,-0.7601470947265625,-0.518768310546875,-0.4640045166015625
1747237106694113800,2.95411376953125,-0.77886962890625,-0.234283447265625,-0.4681549072265625
1747237106704144600,2.96414453125,-0.875213623046875,0.0361480712890625,-0.365997314453125
1747237106714175700,2.97417578125,-1.042083740234375,0.25531005859375,-0.2720947265625
1747237106724206600,2.98420654296875,-1.045013427734375,0.53936767578125,-0.00341796875
1747237106734236700,2.994236572265625,-1.262969970703125,0.8236236572265625,0.346405029296875
1747237106744267800,3.004267822265625,-1.265350341796875,0.901031494140625,0.6292724609375
1747237106754298600,3.014298583984375,-1.0722808837890625,1.2425079345703125,1.023468017578125
1747237106764329700,3.024329833984375,-0.7711944580078125,1.3900146484375,0.774871826171875
1747237106774360600,3.034360595703125,-0.551300048828125,1.3006744384765625,0.556854248046875
1747237106784391700,3.0443916015625,-0.5236053466796875,0.9777679443359375,0.7097320556640625
1747237106794422500,3.054422607421875,-0.5886993408203125,0.598297119140625,0.9962005615234375
1747237106804453600,3.06445361328125,-0.6546173095703125,0.2784881591796875,1.1927490234375
1747237106814484500,3.074484375,-0.8086395263671875,0.20855712890625,1.2080078125
1747237106824515600,3.084515625,-0.9158477783203125,0.255279541015625,1.1176910400390625
1747237106834545700,3.094545654296875,-0.912872314453125,0.336669921875,0.8204803466796875
1747237106844576500,3.104576416015625,-0.892486572265625,0.2879791259765625,0.616302490234375
1747237106854607600,3.114607666015625,-0.8466949462890625,0.1962432861328125,0.6209869384765625
1747237106864638500,3.124638427734375,-0.669921875,0.2241973876953125,0.70477294921875
1747237106874669800,3.134669921875,-0.7017822265625,0.0885162353515625,0.96484375
1747237106884700700,3.14470068359375,-0.788604736328125,0.094451904296875,0.6671905517578125
1747237106894731800,3.154731689453125,-0.844329833984375,0.2403564453125,0.5979766845703125
1747237106904762600,3.1647626953125,-0.8757476806640625,0.33038330078125,0.8628387451171875
1747237106914793700,3.174793701171875,-0.7608489990234375,0.2718963623046875,0.90472412109375
1747237106924824800,3.184824951171875,-0.68389892578125,0.135101318359375,0.6245574951171875
1747237106934854700,3.194854736328125,-0.769500732421875,0.25396728515625,0.4788360595703125
1747237106944885800,3.2048857421875,-0.854400634765625,0.1852264404296875,0.58770751953125
1747237106954916600,3.21491650390625,-0.78765869140625,0.1210174560546875,0.6295623779296875
1747237106964947700,3.22494775390625,-0.7484588623046875,0.1809539794921875,0.6348419189453125
1747237106974978600,3.234978515625,-0.717010498046875,0.2588958740234375,0.6061248779296875
1747237106985009700,3.245009765625,-0.7295074462890625,0.2946929931640625,0.5579071044921875
1747237106995040800,3.255040771484375,-0.7119598388671875,0.3799591064453125,0.4741973876953125
1747237107005071600,3.265071533203125,-0.879058837890625,0.351531982421875,0.4971771240234375
1747237107015102700,3.275102783203125,-1.0200347900390625,0.2200469970703125,0.5748138427734375
1747237107025133600,3.285133544921875,-1.0021209716796875,0.093231201171875,0.694366455078125
1747237107035163600,3.29516357421875,-0.9763336181640625,0.02191162109375,0.659881591796875
1747237107045194800,3.30519482421875,-0.9092254638671875,-0.0502777099609375,0.6504974365234375
1747237107055225600,3.3152255859375,-0.8056793212890625,-0.118865966796875,0.6246795654296875
1747237107065256700,3.325256591796875,-0.7117919921875,-0.0900726318359375,0.6030731201171875
1747237107075287600,3.33528759765625,-0.693756103515625,0.0061798095703125,0.59100341796875
1747237107085319000,3.34531884765625,-0.7096710205078125,0.086700439453125,0.52911376953125
1747237107095349800,3.355349853515625,-0.721923828125,0.1084747314453125,0.479522705078125
1747237107105380900,3.365380859375,-0.682281494140625,0.0895538330078125,0.4947357177734375
1747237107115411700,3.37541162109375,-0.6318206787109375,0.051788330078125,0.52679443359375
1747237107125442800,3.38544287109375,-0.671875,-0.004669189453125,0.5445404052734375
1747237107135473000,3.395472900390625,-0.8433074951171875,-0.029083251953125,0.51708984375
1747237107145503700,3.405503662109375,-1.0181732177734375,-0.0292205810546875,0.474761962890625
1747237107155534800,3.415534912109375,-1.03717041015625,-0.0058135986328125,0.496002197265625
1747237107165565700,3.425565673828125,-0.9441986083984375,-0.0269012451171875,0.577728271484375
1747237107175596800,3.4355966796875,-0.78204345703125,-0.0235748291015625,0.64892578125
1747237107185627600,3.445627685546875,-0.636016845703125,0.057952880859375,0.6539154052734375
1747237107195658800,3.45565869140625,-0.5629425048828125,0.08258056640625,0.6110076904296875
1747237107205689600,3.465689697265625,-0.5711517333984375,0.0828399658203125,0.587188720703125
1747237107215720700,3.475720703125,-0.6965484619140625,0.0067596435546875,0.579376220703125
1747237107225751600,3.48575146484375,-0.881866455078125,-0.1495513916015625,0.6445159912109375
1747237107235781600,3.49578173828125,-0.9511566162109375,-0.1988067626953125,0.7740020751953125
1747237107245812700,3.505812744140625,-0.776153564453125,-0.09039306640625,0.8278350830078125
1747237107255843600,3.515843505859375,-0.7418212890625,-0.10418701171875,0.8053131103515625
1747237107265874700,3.525874755859375,-0.7315521240234375,-0.1732025146484375,0.7827911376953125
1747237107275905500,3.535905517578125,-0.728240966796875,-0.0377197265625,0.7879180908203125
1747237107285936600,3.5459365234375,-0.714599609375,-0.082244873046875,0.7884979248046875
1747237107295967500,3.555967529296875,-0.6650848388671875,-0.0853424072265625,0.707489013671875
1747237107305998000,3.565998046875,-0.573089599609375,-0.0032806396484375,0.754241943359375
1747237107316029200,3.576029296875,-0.5266571044921875,-0.0580596923828125,0.74560546875
1747237107326060300,3.586060302734375,-0.4645843505859375,-0.1599273681640625,0.714935302734375
1747237107336090000,3.596090087890625,-0.46044921875,-0.2050018310546875,0.7254791259765625
1747237107346121000,3.606120849609375,-0.6333160400390625,-0.0882415771484375,0.7940216064453125
1747237107356152300,3.61615234375,-0.8104400634765625,0.0502777099609375,0.8531036376953125
1747237107366183200,3.62618310546875,-0.8354034423828125,0.13031005859375,0.81378173828125
1747237107376214300,3.63621435546875,-0.8099822998046875,0.147064208984375,0.75225830078125
1747237107386245400,3.646245361328125,-0.7473297119140625,0.10723876953125,0.698577880859375
1747237107396276200,3.656276123046875,-0.68780517578125,0.047271728515625,0.6631011962890625
1747237107406307300,3.666307373046875,-0.6529998779296875,0.0497283935546875,0.6681976318359375
1747237107416338200,3.676338134765625,-0.6061553955078125,0.038543701171875,0.6699066162109375
1747237107426368300,3.6863681640625,-0.60406494140625,0.0464324951171875,0.6500396728515625
1747237107436399000,3.696399169921875,-0.662139892578125,0.1111907958984375,0.647979736328125
1747237107446430200,3.70643017578125,-0.7300567626953125,0.1403961181640625,0.633392333984375
1747237107456461300,3.71646142578125,-0.7792205810546875,0.1557464599609375,0.607452392578125
1747237107466492200,3.7264921875,-0.78204345703125,0.1999969482421875,0.5488739013671875
1747237107476523300,3.736523193359375,-0.7469024658203125,0.291595458984375,0.475341796875
1747237107486554000,3.74655419921875,-0.6990203857421875,0.30364990234375,0.4689788818359375
1747237107496585200,3.756585205078125,-0.667327880859375,0.3373870849609375,0.5289154052734375
1747237107506616000,3.766615966796875,-0.6515960693359375,0.340545654296875,0.64599609375
1747237107516647200,3.776647216796875,-0.6497039794921875,0.27178955078125,0.750640869140625
1747237107526677200,3.78667724609375,-0.6696319580078125,0.2155609130859375,0.7975311279296875
1747237107536708000,3.7967080078125,-0.7074127197265625,0.2641143798828125,0.7552032470703125
1747237107546739200,3.8067392578125,-0.682281494140625,0.267120361328125,0.7163543701171875
1747237107556770000,3.81677001953125,-0.6659393310546875,0.317291259765625,0.7140045166015625
1747237107566801200,3.82680126953125,-0.664703369140625,0.2731475830078125,0.7605438232421875
1747237107576832300,3.836832275390625,-0.6682891845703125,0.2398529052734375,0.782684326171875
1747237107586863400,3.84686328125,-0.7569732666015625,0.5117340087890625,0.5968475341796875
1747237107596894200,3.856894287109375,-0.7084808349609375,0.6038970947265625,0.5928955078125
1747237107606925300,3.86692529296875,-0.63043212890625,0.5600738525390625,0.7057647705078125
1747237107616955400,3.876955322265625,-0.6217498779296875,0.50555419921875,0.7436370849609375
1747237107626986200,3.886986328125,-0.697509765625,0.5742950439453125,0.651641845703125
1747237107637017300,3.897017333984375,-0.7259368896484375,0.5380706787109375,0.5883331298828125
1747237107647048200,3.907048095703125,-0.72369384765625,0.581878662109375,0.5264892578125
1747237107657079300,3.917079345703125,-0.706146240234375,0.5737152099609375,0.472900390625
1747237107667110100,3.927110107421875,-0.677825927734375,0.464141845703125,0.4976959228515625
1747237107677141200,3.937141357421875,-0.6836395263671875,0.349365234375,0.528228759765625
1747237107687172000,3.947172119140625,-0.6699371337890625,0.2740478515625,0.5660552978515625
1747237107697203200,3.957203125,-0.610931396484375,0.2515106201171875,0.617218017578125
1747237107707233300,3.9672333984375,-0.6621551513671875,0.3896484375,0.5172119140625
1747237107717264100,3.97726416015625,-0.70697021484375,0.43328857421875,0.53741455078125
1747237107727295200,3.987295166015625,-0.756317138671875,0.46502685546875,0.5911407470703125
1747237107737326000,3.997326171875,-0.803375244140625,0.492095947265625,0.6002197265625
1747237107747357200,4.007357177734375,-0.81842041015625,0.520782470703125,0.6024322509765625
1747237107757388000,4.017387939453125,-0.7731170654296875,0.521484375,0.6331939697265625
1747237107767419100,4.027419189453125,-0.641021728515625,0.4649658203125,0.6672210693359375
1747237107777450000,4.037449951171875,-0.56787109375,0.44091796875,0.9420928955078125
1747237107787481000,4.047481201171875,-0.71502685546875,0.538360595703125,0.92181396484375
1747237107797511200,4.05751123046875,-0.74041748046875,0.485992431640625,0.8408660888671875
1747237107807542000,4.0675419921875,-0.704345703125,0.41485595703125,0.7761688232421875
1747237107817573000,4.077572998046875,-0.7119293212890625,0.3862762451171875,0.7039642333984375
1747237107827604200,4.087604248046875,-0.72515869140625,0.405853271484375,0.61407470703125
1747237107837635300,4.09763525390625,-0.6969757080078125,0.387298583984375,0.641204833984375
1747237107847666200,4.107666259765625,-0.636871337890625,0.3248138427734375,0.614990234375
1747237107857697300,4.117697265625,-0.5901641845703125,0.2673492431640625,0.529083251953125
1747237107867728100,4.12772802734375,-0.592376708984375,0.28125,0.57672119140625
1747237107877759200,4.13775927734375,-0.636505126953125,0.3224945068359375,0.7164459228515625
1747237107887789300,4.147789306640625,-0.7005767822265625,0.379180908203125,0.7887420654296875
1747237107897820200,4.157820068359375,-0.7386932373046875,0.40478515625,0.824920654296875
1747237107907851300,4.167851318359375,-0.726226806640625,0.4200592041015625,0.80963134765625
1747237107917882000,4.177882080078125,-0.7480010986328125,0.4376068115234375,0.8281402587890625
1747237107927913200,4.187913330078125,-0.7878875732421875,0.4211883544921875,0.93133544921875
1747237107937944000,4.197944091796875,-0.7725677490234375,0.4070892333984375,1.0030059814453125
1747237107947975200,4.20797509765625,-0.717010498046875,0.4100494384765625,0.9754791259765625
1747237107958006000,4.218006103515625,-0.6537628173828125,0.369842529296875,0.9607391357421875
1747237107968037000,4.228037109375,-0.640472412109375,0.392791748046875,0.884613037109375
1747237107978067200,4.238067138671875,-0.6630706787109375,0.407379150390625,0.804595947265625
1747237107988098000,4.24809814453125,-0.720184326171875,0.4304656982421875,0.6961212158203125
1747237107998129200,4.258129150390625,-0.682098388671875,0.3705902099609375,0.6187286376953125
1747237108008160000,4.268159912109375,-0.5824432373046875,0.35479736328125,0.267242431640625
1747237108018191000,4.278191162109375,-0.450897216796875,0.2071075439453125,0.0043182373046875
1747237108028222200,4.28822216796875,-0.272552490234375,0.3675994873046875,-0.1301116943359375
1747237108038253000,4.298253173828125,-0.151824951171875,0.7935028076171875,-0.20916748046875
1747237108048284400,4.308284423828125,-0.444488525390625,0.3853302001953125,-0.0123138427734375
1747237108058315300,4.318315185546875,-1.117279052734375,0.1226348876953125,-0.1803131103515625
1747237108068345000,4.328344970703125,-1.549468994140625,0.0267486572265625,-0.1872100830078125
1747237108078376200,4.338376220703125,-1.527069091796875,-0.1606903076171875,0.2940673828125
1747237108088407300,4.3484072265625,-1.206146240234375,-0.2926483154296875,0.5795135498046875
1747237108098438100,4.358438232421875,-0.9098358154296875,-0.139129638671875,0.1020050048828125
1747237108108469200,4.36846923828125,-0.81512451171875,0.0040130615234375,-0.0954742431640625
1747237108118500400,4.378500244140625,-0.762603759765625,0.0360870361328125,-0.1060791015625
1747237108128531200,4.38853125,-0.770599365234375,0.0659637451171875,-0.221649169921875
1747237108138562300,4.398562255859375,-0.809722900390625,0.1252593994140625,-0.18438720703125
1747237108148593200,4.40859326171875,-0.87841796875,0.1645965576171875,-0.0164794921875
1747237108158623200,4.418623291015625,-0.9174041748046875,0.2321014404296875,0.092041015625
1747237108168654000,4.428654052734375,-0.9050750732421875,0.290496826171875,0.1548004150390625
1747237108178685200,4.438685302734375,-0.8592681884765625,0.3073577880859375,0.1992645263671875
1747237108188716300,4.44871630859375,-0.8017730712890625,0.311126708984375,0.257049560546875
1747237108198747100,4.4587470703125,-0.74462890625,0.3154754638671875,0.3056182861328125
1747237108208778200,4.4687783203125,-0.6989898681640625,0.3325653076171875,0.3388214111328125
1747237108218809000,4.47880908203125,-0.6823883056640625,0.36578369140625,0.3802032470703125
1747237108228840200,4.488840087890625,-0.6734619140625,0.4177703857421875,0.43646240234375
1747237108238871000,4.49887109375,-0.5725555419921875,0.467315673828125,0.5296173095703125
1747237108248901000,4.508901123046875,-0.67462158203125,0.5442657470703125,0.6007537841796875
1747237108258932200,4.51893212890625,-0.842071533203125,0.63653564453125,0.691009521484375
1747237108268963000,4.528963134765625,-0.9877166748046875,0.7101898193359375,0.7690582275390625
1747237108278994200,4.538994140625,-0.8425140380859375,0.7028961181640625,0.661956787109375
1747237108289025000,4.54902490234375,-0.570404052734375,0.6348876953125,0.531158447265625
1747237108299056400,4.559056396484375,-0.518157958984375,0.5588531494140625,0.58428955078125
1747237108309087000,4.5690869140625,-0.59197998046875,0.468780517578125,0.6844482421875
1747237108319118000,4.5791181640625,-0.763397216796875,0.403594970703125,0.7225341796875
1747237108329149000,4.58914892578125,-0.8553466796875,0.390472412109375,0.7706146240234375
1747237108339179000,4.599178955078125,-0.773040771484375,0.3766021728515625,0.7064971923828125
1747237108349210000,4.609210205078125,-0.6834869384765625,0.3188629150390625,0.714447021484375
1747237108359241000,4.619240966796875,-0.8015594482421875,0.301605224609375,0.8375244140625
1747237108369272000,4.62927197265625,-0.7175445556640625,0.2873687744140625,0.8614959716796875
1747237108379303000,4.639302978515625,-0.553314208984375,0.245269775390625,0.9838104248046875
1747237108389334000,4.649333984375,-0.4930267333984375,0.1169891357421875,1.137451171875
1747237108399364900,4.65936474609375,-0.6837005615234375,0.1678009033203125,0.8724365234375
1747237108409396000,4.66939599609375,-0.714447021484375,0.157470703125,0.834991455078125
1747237108419426800,4.6794267578125,-0.7130279541015625,0.2041168212890625,0.7879791259765625
1747237108429457000,4.689456787109375,-0.727691650390625,0.284332275390625,0.7306060791015625
1747237108439488000,4.699488037109375,-0.6808319091796875,0.248443603515625,0.6861572265625
1747237108449518800,4.709518798828125,-0.6527862548828125,0.2129058837890625,0.639495849609375
1747237108459550000,4.719550048828125,-0.6260833740234375,0.2094268798828125,0.6550140380859375
1747237108469580800,4.729580810546875,-0.614501953125,0.2126617431640625,0.654388427734375
1747237108479612000,4.73961181640625,-0.6223602294921875,0.232330322265625,0.657073974609375
1747237108489642800,4.749642822265625,-0.62322998046875,0.248931884765625,0.677703857421875
1747237108499673900,4.759673828125,-0.6323394775390625,0.262603759765625,0.7027587890625
1747237108509704000,4.769703857421875,-0.652374267578125,0.2833404541015625,0.713714599609375
1747237108519734800,4.77973486328125,-0.6575164794921875,0.307098388671875,0.710662841796875
1747237108529766000,4.789765869140625,-0.6749420166015625,0.31939697265625,0.770751953125
1747237108539796700,4.799796630859375,-0.680572509765625,0.3095550537109375,0.7827606201171875
1747237108549828000,4.809828125,-0.65447998046875,0.27685546875,0.750762939453125
1747237108559859000,4.81985888671875,-0.6215972900390625,0.2373809814453125,0.7416534423828125
1747237108569890000,4.82989013671875,-0.6240234375,0.1923370361328125,0.758056640625
1747237108579921000,4.8399208984375,-0.644622802734375,0.1568603515625,0.7474517822265625
1747237108589952000,4.849951904296875,-0.6468963623046875,0.1693267822265625,0.70037841796875
1747237108599982000,4.859982177734375,-0.6211090087890625,0.184112548828125,0.6869049072265625
1747237108610013000,4.870012939453125,-0.602386474609375,0.225982666015625,0.684814453125
1747237108620044000,4.8800439453125,-0.578521728515625,0.273651123046875,0.696746826171875
1747237108630075000,4.890074951171875,-0.54327392578125,0.296142578125,0.7461090087890625
1747237108640106000,4.90010595703125,-0.605865478515625,0.2830810546875,0.7865753173828125
1747237108650136800,4.91013671875,-0.6984405517578125,0.2520904541015625,0.7802734375
1747237108660168000,4.92016796875,-0.680145263671875,0.23211669921875,0.7414398193359375
1747237108670199000,4.930198974609375,-0.6192626953125,0.2160491943359375,0.75384521484375
1747237108680230000,4.94022998046875,-0.6156768798828125,0.192108154296875,0.8089141845703125
1747237108690260000,4.950260009765625,-0.576751708984375,0.20245361328125,0.805999755859375
1747237108700290800,4.960290771484375,-0.528472900390625,0.2486114501953125,0.7874603271484375
1747237108710322000,4.970322021484375,-0.5105743408203125,0.2778472900390625,0.74212646484375
1747237108720352800,4.980352783203125,-0.519775390625,0.3108367919921875,0.624176025390625
1747237108730384000,4.9903837890625,-0.5678558349609375,0.3173370361328125,0.7330474853515625
1747237108740415000,5.0004150390625,-0.566741943359375,0.2781219482421875,0.7179107666015625
1747237108750445800,5.01044580078125,-0.539154052734375,0.207550048828125,0.6748199462890625
1747237108760477000,5.020476806640625,-0.5854339599609375,0.18798828125,0.689453125
1747237108770508000,5.030508056640625,-0.652618408203125,0.2383270263671875,0.7418060302734375
1747237108780537900,5.040537841796875,-0.6491241455078125,0.2277679443359375,0.8000640869140625
1747237108790568700,5.050568603515625,-0.6525726318359375,0.19268798828125,0.853118896484375
1747237108800600000,5.06060009765625,-0.6861114501953125,0.1638336181640625,0.926422119140625
1747237108810631000,5.070630859375,-0.72027587890625,0.1746673583984375,0.85894775390625
1747237108820662000,5.080662109375,-0.641021728515625,0.210113525390625,0.8758544921875
1747237108830693000,5.090693115234375,-0.601806640625,0.182891845703125,0.806610107421875
1747237108840724000,5.100723876953125,-0.6113433837890625,0.1759185791015625,0.7840423583984375
1747237108850755000,5.110755126953125,-0.61407470703125,0.182891845703125,0.7580718994140625
1747237108860785000,5.120784912109375,-0.620635986328125,0.20208740234375,0.75567626953125
1747237108870816000,5.13081591796875,-0.6337432861328125,0.246673583984375,0.736328125
1747237108880847000,5.14084716796875,-0.651336669921875,0.247314453125,0.74725341796875
1747237108890878000,5.1508779296875,-0.66314697265625,0.232421875,0.7574310302734375
1747237108900909000,5.160908935546875,-0.67230224609375,0.22552490234375,0.7342071533203125
1747237108910940000,5.17093994140625,-0.65966796875,0.205780029296875,0.719146728515625
1747237108920971000,5.180970947265625,-0.652984619140625,0.1671905517578125,0.7220306396484375
1747237108931001900,5.191001953125,-0.663726806640625,0.134521484375,0.6763458251953125
1747237108941033000,5.201032958984375,-0.682464599609375,0.131927490234375,0.63653564453125
1747237108951063800,5.211063720703125,-0.69000244140625,0.1817169189453125,0.635498046875
1747237108961094000,5.221093994140625,-0.6981353759765625,0.2287139892578125,0.64691162109375
1747237108971125000,5.231125,-0.698394775390625,0.236480712890625,0.6428985595703125
1747237108981155800,5.24115576171875,-0.68353271484375,0.231170654296875,0.6387176513671875
1747237108991187000,5.25118701171875,-0.6540985107421875,0.2164154052734375,0.6281280517578125
1747237109001217800,5.2612177734375,-0.6634674072265625,0.183197021484375,0.649200439453125
1747237109011249000,5.271248779296875,-0.706146240234375,0.1321563720703125,0.68511962890625
1747237109021280000,5.281280029296875,-0.7186126708984375,0.10906982421875,0.7184600830078125
1747237109031311000,5.29131103515625,-0.698577880859375,0.1158447265625,0.7506256103515625
1747237109041342000,5.301342041015625,-0.6971282958984375,0.2291107177734375,0.6841888427734375
1747237109051372000,5.3113720703125,-0.7385711669921875,0.2292327880859375,0.7329559326171875
1747237109061403100,5.321403076171875,-0.748077392578125,0.1925048828125,0.740692138671875
1747237109071434000,5.33143408203125,-0.7421875,0.151397705078125,0.7334136962890625
1747237109081465000,5.341465087890625,-0.7156524658203125,0.1290130615234375,0.69921875
1747237109091496000,5.351495849609375,-0.6845855712890625,0.1439666748046875,0.6533050537109375
1747237109101527000,5.361527099609375,-0.664703369140625,0.1985626220703125,0.6117706298828125
1747237109111558000,5.371557861328125,-0.6589202880859375,0.2506103515625,0.6115875244140625
1747237109121589000,5.381589111328125,-0.68048095703125,0.275726318359375,0.638885498046875
1747237109131619800,5.391619873046875,-0.684722900390625,0.285400390625,0.6534271240234375
1747237109141650000,5.40164990234375,-0.6845703125,0.247802734375,0.67340087890625
1747237109151681000,5.411680908203125,-0.6844635009765625,0.21331787109375,0.701629638671875
1747237109161711900,5.4217119140625,-0.668975830078125,0.2006378173828125,0.7083587646484375
1747237109171743000,5.431742919921875,-0.6822509765625,0.2020111083984375,0.722137451171875
1747237109181773800,5.44177392578125,-0.689117431640625,0.2116851806640625,0.7595672607421875
1747237109191805000,5.451804931640625,-0.7071380615234375,0.21563720703125,0.7652587890625
1747237109201835800,5.461835693359375,-0.7267303466796875,0.2041168212890625,0.76837158203125
1747237109211867000,5.471866943359375,-0.729766845703125,0.1997833251953125,0.7492523193359375
1747237109221897700,5.481897705078125,-0.6941375732421875,0.2358551025390625,0.722076416015625
1747237109231927800,5.491927734375,-0.6419219970703125,0.2467041015625,0.727630615234375
1747237109241959000,5.501958984375,-0.62054443359375,0.2453155517578125,0.67230224609375
1747237109251989800,5.51198974609375,-0.64544677734375,0.291412353515625,0.6456298828125
1747237109262020900,5.522020751953125,-0.6690826416015625,0.2573394775390625,0.6933135986328125
1747237109272052000,5.532052001953125,-0.6574554443359375,0.2153167724609375,0.7047576904296875
1747237109282083000,5.5420830078125,-0.66070556640625,0.1688385009765625,0.665496826171875
1747237109292114000,5.552114013671875,-0.668212890625,0.1579437255859375,0.6776275634765625
1747237109302145300,5.562145263671875,-0.6867828369140625,0.1887054443359375,0.685638427734375
1747237109312176000,5.572176025390625,-0.7097320556640625,0.2047271728515625,0.7088623046875
1747237109322206200,5.582206298828125,-0.6714324951171875,0.2289886474609375,0.70404052734375
1747237109332237300,5.5922373046875,-0.6219635009765625,0.307159423828125,0.6759796142578125
1747237109342268200,5.60226806640625,-0.638092041015625,0.3294525146484375,0.7631683349609375
1747237109352299300,5.61229931640625,-0.714935302734375,0.2601776123046875,0.75653076171875
1747237109362330000,5.622330078125,-0.7347564697265625,0.1831207275390625,0.75311279296875
1747237109372361200,5.632361328125,-0.711181640625,0.1532440185546875,0.7531585693359375
1747237109382392000,5.64239208984375,-0.712127685546875,0.1584014892578125,0.7267913818359375
1747237109392423200,5.652423095703125,-0.6843719482421875,0.1920623779296875,0.7090606689453125
1747237109402454000,5.6624541015625,-0.6526031494140625,0.233367919921875,0.6840362548828125
1747237109412485000,5.672485107421875,-0.6438446044921875,0.2338714599609375,0.7109527587890625
1747237109422515200,5.68251513671875,-0.6638031005859375,0.2196197509765625,0.7017059326171875
1747237109432546000,5.692546142578125,-0.6717987060546875,0.197967529296875,0.7028350830078125
1747237109442577200,5.7025771484375,-0.6680450439453125,0.1634674072265625,0.7265167236328125
1747237109452608000,5.71260791015625,-0.6698760986328125,0.105743408203125,0.6896514892578125
1747237109462639000,5.72263916015625,-0.6934356689453125,0.190216064453125,0.6069793701171875
1747237109472670000,5.732669921875,-0.6708526611328125,0.287841796875,0.732666015625
1747237109482701300,5.742701416015625,-0.674102783203125,0.241485595703125,0.716278076171875
1747237109492732200,5.752732177734375,-0.669586181640625,0.258087158203125,0.683502197265625
1747237109502763300,5.76276318359375,-0.670013427734375,0.2356414794921875,0.69232177734375
1747237109512793300,5.77279345703125,-0.6889190673828125,0.2197265625,0.6969757080078125
1747237109522824200,5.78282421875,-0.704864501953125,0.21343994140625,0.68792724609375
1747237109532855300,5.792855224609375,-0.7085113525390625,0.2021942138671875,0.6781768798828125
1747237109542886100,5.80288623046875,-0.7061004638671875,0.2142791748046875,0.658599853515625
1747237109552917200,5.812917236328125,-0.698486328125,0.229095458984375,0.6564178466796875
1747237109562948400,5.8229482421875,-0.6880950927734375,0.2292327880859375,0.6669921875
1747237109572979200,5.832979248046875,-0.6895294189453125,0.2344512939453125,0.67547607421875
1747237109583010300,5.84301025390625,-0.68731689453125,0.239013671875,0.6828765869140625
1747237109593041200,5.853041259765625,-0.685791015625,0.2405853271484375,0.696807861328125
1747237109603072300,5.863072265625,-0.69940185546875,0.2299957275390625,0.7033233642578125
1747237109613102000,5.87310205078125,-0.7204132080078125,0.2080230712890625,0.6973419189453125
1747237109623133200,5.88313330078125,-0.71417236328125,0.1867218017578125,0.6839447021484375
1747237109633164300,5.893164306640625,-0.692138671875,0.1982574462890625,0.6749114990234375
1747237109643195100,5.903195068359375,-0.6767730712890625,0.21478271484375,0.6835174560546875
1747237109653226200,5.913226318359375,-0.6740570068359375,0.2392730712890625,0.6922760009765625
1747237109663257000,5.923257080078125,-0.6952056884765625,0.2521209716796875,0.7180328369140625
1747237109673288200,5.9332880859375,-0.7233428955078125,0.25225830078125,0.72979736328125
1747237109683319000,5.943319091796875,-0.7178802490234375,0.2580108642578125,0.722015380859375
1747237109693350100,5.95335009765625,-0.683868408203125,0.2541046142578125,0.703643798828125
1747237109703381200,5.96338134765625,-0.665435791015625,0.2500762939453125,0.6962738037109375
1747237109713411000,5.9734111328125,-0.6497039794921875,0.2667694091796875,0.6666259765625
1747237109723442200,5.983442138671875,-0.644683837890625,0.2730560302734375,0.65679931640625
1747237109733473300,5.993473388671875,-0.6699371337890625,0.251007080078125,0.6737823486328125
1747237109743504400,6.00350439453125,-0.7396240234375,0.2199249267578125,0.6570587158203125
1747237109753535200,6.01353515625,-0.74346923828125,0.205596923828125,0.7134552001953125
1747237109763566300,6.02356640625,-0.7002716064453125,0.1507720947265625,0.704620361328125
1747237109773597200,6.03359716796875,-0.684814453125,0.17169189453125,0.7304840087890625
1747237109783628300,6.043628173828125,-0.671142578125,0.1492919921875,0.776092529296875
1747237109793659100,6.0536591796875,-0.6580963134765625,0.14593505859375,0.716156005859375
1747237109803690200,6.063690185546875,-0.67303466796875,0.1907958984375,0.7071533203125
1747237109813720300,6.07372021484375,-0.6771087646484375,0.1670989990234375,0.7225799560546875
1747237109823751200,6.083751220703125,-0.6684112548828125,0.1881256103515625,0.688751220703125
1747237109833782300,6.0937822265625,-0.6605377197265625,0.244781494140625,0.6778564453125
1747237109843813000,6.103813232421875,-0.6536712646484375,0.308135986328125,0.641815185546875
1747237109853844200,6.11384423828125,-0.647308349609375,0.172088623046875,0.726654052734375
1747237109863875000,6.123875,-0.639556884765625,0.1333160400390625,0.649871826171875
1747237109873906200,6.13390625,-0.64776611328125,0.1827392578125,0.645782470703125
1747237109883937000,6.14393701171875,-0.6394195556640625,0.2288665771484375,0.628631591796875
1747237109893968100,6.153968017578125,-0.6430206298828125,0.3061676025390625,0.6751251220703125
1747237109903999000,6.1639990234375,-0.6479339599609375,0.29217529296875,0.729583740234375
1747237109914029000,6.174029052734375,-0.673370361328125,0.2637939453125,0.7674560546875
1747237109924060200,6.18406005859375,-0.6973419189453125,0.2314910888671875,0.7751007080078125
1747237109934091000,6.194091064453125,-0.7037200927734375,0.233428955078125,0.7512969970703125
1747237109944122000,6.2041220703125,-0.696990966796875,0.24884033203125,0.7471771240234375
1747237109954153200,6.2141533203125,-0.684814453125,0.273651123046875,0.729522705078125
1747237109964184300,6.224184326171875,-0.6663055419921875,0.258331298828125,0.722076416015625
1747237109974215200,6.234215087890625,-0.645050048828125,0.2167205810546875,0.7195587158203125
1747237109984246300,6.244246337890625,-0.631591796875,0.1749114990234375,0.67388916015625
1747237109994277000,6.254277099609375,-0.6200408935546875,0.2251434326171875,0.6878509521484375
1747237110004308200,6.26430810546875,-0.62286376953125,0.1647796630859375,0.69415283203125
1747237110014339300,6.27433935546875,-0.664886474609375,0.27703857421875,0.700439453125
1747237110024369200,6.284369140625,-0.67706298828125,0.2657623291015625,0.744476318359375
1747237110034400300,6.294400146484375,-0.6740570068359375,0.26068115234375,0.74554443359375
1747237110044431000,6.30443115234375,-0.6778564453125,0.276824951171875,0.749298095703125
1747237110054462200,6.314462158203125,-0.677764892578125,0.26702880859375,0.7406768798828125
1747237110064493000,6.3244931640625,-0.67425537109375,0.2724609375,0.7261810302734375
1747237110074524200,6.334524169921875,-0.660980224609375,0.247528076171875,0.737518310546875
1747237110084555300,6.34455517578125,-0.653106689453125,0.2281036376953125,0.6928558349609375
1747237110094586000,6.354586181640625,-0.656646728515625,0.2822418212890625,0.681976318359375
1747237110104617200,6.3646171875,-0.6503448486328125,0.2616729736328125,0.702362060546875
1747237110114647000,6.37464697265625,-0.6418304443359375,0.1656341552734375,0.724151611328125
1747237110124678100,6.38467822265625,-0.646148681640625,0.17108154296875,0.6811370849609375
1747237110134709000,6.394708984375,-0.66802978515625,0.3305511474609375,0.7344970703125
1747237110144740000,6.404739990234375,-0.6805572509765625,0.3028717041015625,0.75103759765625
1747237110154771200,6.414771240234375,-0.67840576171875,0.25885009765625,0.7701873779296875
1747237110164802000,6.424802001953125,-0.675079345703125,0.2125091552734375,0.754119873046875
1747237110174833400,6.43483349609375,-0.6766815185546875,0.2352142333984375,0.7398681640625
1747237110184864300,6.4448642578125,-0.6752471923828125,0.1825103759765625,0.733673095703125
1747237110194895400,6.454895263671875,-0.6709442138671875,0.2124481201171875,0.6824188232421875
1747237110204926200,6.46492626953125,-0.6601104736328125,0.316314697265625,0.6766204833984375
1747237110214957300,6.474957275390625,-0.6495819091796875,0.279693603515625,0.685150146484375
1747237110224987400,6.4849873046875,-0.654296875,0.2866058349609375,0.688201904296875
1747237110235018200,6.495018310546875,-0.65057373046875,0.3085784912109375,0.6668853759765625
1747237110245049300,6.50504931640625,-0.66180419921875,0.2223663330078125,0.714202880859375
1747237110255080200,6.515080078125,-0.6866302490234375,0.1899871826171875,0.6930694580078125
1747237110265111300,6.525111328125,-0.7032928466796875,0.156280517578125,0.71893310546875
1747237110275142100,6.53514208984375,-0.717529296875,0.2681732177734375,0.6530914306640625
1747237110285173200,6.54517333984375,-0.7010650634765625,0.210662841796875,0.7240447998046875
1747237110295204000,6.5552041015625,-0.70684814453125,0.174163818359375,0.66729736328125
1747237110305236200,6.565236328125,-0.711181640625,0.191070556640625,0.6584014892578125
1747237110315267000,6.57526708984375,-0.727752685546875,0.18780517578125,0.645538330078125
1747237110325298200,6.585298095703125,-0.7363128662109375,0.173248291015625,0.6591644287109375
1747237110335328000,6.595327880859375,-0.7332763671875,0.1537322998046875,0.6656341552734375
1747237110345359000,6.605359130859375,-0.732666015625,0.0972137451171875,0.7006988525390625
1747237110355390000,6.615389892578125,-0.7249603271484375,0.0238800048828125,0.757965087890625
1747237110365421000,6.625421142578125,-0.712738037109375,0.12353515625,0.7633209228515625
1747237110375452200,6.6354521484375,-0.7376708984375,0.1139984130859375,0.8002471923828125
1747237110385483000,6.64548291015625,-0.7282867431640625,0.0173492431640625,0.8899078369140625
1747237110395514000,6.65551416015625,-0.6982421875,0.1802215576171875,0.7669525146484375
1747237110405545000,6.665544921875,-0.677032470703125,0.393035888671875,0.68402099609375
1747237110415576000,6.675576171875,-0.6932373046875,0.42236328125,0.7295684814453125
1747237110425607000,6.68560693359375,-0.677215576171875,0.479705810546875,0.7480621337890625
1747237110435638000,6.695637939453125,-0.6591033935546875,0.479949951171875,0.7379913330078125
1747237110445668000,6.705668212890625,-0.7112274169921875,0.451690673828125,0.6639862060546875
1747237110455699000,6.715698974609375,-0.8163909912109375,0.3694305419921875,0.4466705322265625
1747237110465730000,6.72572998046875,-0.8062591552734375,0.24114990234375,0.271270751953125
1747237110475761200,6.73576123046875,-0.700225830078125,0.110870361328125,0.2902374267578125
1747237110485792300,6.745792236328125,-0.7159271240234375,0.03704833984375,0.3360443115234375
1747237110495823000,6.755822998046875,-0.68780517578125,0.037109375,0.4440155029296875
1747237110505854200,6.765854248046875,-0.5937042236328125,0.0584564208984375,0.5517730712890625
1747237110515885000,6.775885009765625,-0.5476531982421875,0.0794830322265625,0.660888671875
1747237110525916200,6.785916259765625,-0.6167144775390625,0.138519287109375,0.743255615234375
1747237110535947000,6.795947021484375,-0.635589599609375,0.216033935546875,0.806671142578125
1747237110545978000,6.80597802734375,-0.62237548828125,0.2697601318359375,0.8920135498046875
1747237110556008200,6.81600830078125,-0.584320068359375,0.30487060546875,0.96612548828125
1747237110566039000,6.8260390625,-0.6986846923828125,0.2580108642578125,0.881866455078125
1747237110576070100,6.836070068359375,-0.709747314453125,0.1778564453125,0.84503173828125
1747237110586101000,6.84610107421875,-0.7471466064453125,0.1282196044921875,0.82794189453125
1747237110596132000,6.856132080078125,-0.718719482421875,0.105255126953125,0.830810546875
1747237110606163000,6.866162841796875,-0.7171478271484375,0.076934814453125,0.830413818359375
1747237110616194000,6.876194091796875,-0.830078125,0.0849761962890625,0.6710968017578125
1747237110626225000,6.886224853515625,-0.5603485107421875,0.092926025390625,0.7193756103515625
1747237110636256000,6.896256103515625,-0.4946136474609375,0.10479736328125,0.7928466796875
1747237110646286800,6.906286865234375,-0.6367950439453125,0.147125244140625,0.7381744384765625
1747237110656318000,6.91631787109375,-0.6491851806640625,0.155029296875,0.6641845703125
1747237110666348000,6.92634814453125,-0.6660308837890625,0.1302032470703125,0.6724700927734375
1747237110676379000,6.93637890625,-0.6757965087890625,0.126739501953125,0.68170166015625
1747237110686410000,6.946409912109375,-0.635528564453125,0.1332244873046875,0.6814117431640625
1747237110696441000,6.956441162109375,-0.621551513671875,0.135467529296875,0.695892333984375
1747237110706472200,6.96647216796875,-0.6248016357421875,0.1338653564453125,0.7420196533203125
1747237110716503000,6.9765029296875,-0.631988525390625,0.1373138427734375,0.78564453125
1747237110726534100,6.9865341796875,-0.6522064208984375,0.1429595947265625,0.7933502197265625
1747237110736565000,6.99656494140625,-0.65576171875,0.1546173095703125,0.807342529296875
1747237110746596000,7.00659619140625,-0.6530914306640625,0.162689208984375,0.8150177001953125
1747237110756627200,7.016627197265625,-0.644012451171875,0.1654815673828125,0.821929931640625
1747237110766658000,7.026657958984375,-0.6354827880859375,0.164093017578125,0.8202972412109375
1747237110776689200,7.036689208984375,-0.6295166015625,0.1574554443359375,0.8108367919921875
1747237110786719000,7.046718994140625,-0.6220550537109375,0.1467132568359375,0.7993621826171875
1747237110796750000,7.05675,-0.6223602294921875,0.1358795166015625,0.7781219482421875
1747237110806781000,7.066781005859375,-0.62713623046875,0.1261138916015625,0.75762939453125
1747237110816812000,7.07681201171875,-0.6302947998046875,0.1205596923828125,0.7383270263671875
1747237110826843100,7.086843017578125,-0.629913330078125,0.118896484375,0.7259979248046875
1747237110836874000,7.0968740234375,-0.6316375732421875,0.1252899169921875,0.7221221923828125
1747237110846905000,7.106905029296875,-0.634307861328125,0.1295318603515625,0.724945068359375
1747237110856936000,7.11693603515625,-0.6368255615234375,0.1339111328125,0.7328948974609375
1747237110866967000,7.126967041015625,-0.639434814453125,0.13873291015625,0.74444580078125
1747237110876998000,7.136997802734375,-0.641510009765625,0.1402740478515625,0.7572479248046875
1747237110887029200,7.147029296875,-0.6410675048828125,0.1421051025390625,0.764068603515625
1747237110897059000,7.15705908203125,-0.6396942138671875,0.138397216796875,0.7682952880859375
1747237110907090000,7.16708984375,-0.6421661376953125,0.1352081298828125,0.77227783203125
1747237110917121300,7.177121337890625,-0.64251708984375,0.1321258544921875,0.7709197998046875
1747237110927152000,7.187152099609375,-0.6457672119140625,0.13128662109375,0.7693939208984375
1747237110937183200,7.197183349609375,-0.6495361328125,0.12664794921875,0.757049560546875
1747237110947214000,7.207214111328125,-0.6562652587890625,0.1255645751953125,0.7357635498046875
1747237110957245200,7.2172451171875,-0.66448974609375,0.132415771484375,0.729583740234375
1747237110967276000,7.227276123046875,-0.66583251953125,0.1397857666015625,0.735504150390625
1747237110977307100,7.23730712890625,-0.6527557373046875,0.1402587890625,0.7381744384765625
1747237110987338000,7.247337890625,-0.6508636474609375,0.14361572265625,0.7335052490234375
1747237110997369000,7.257369140625,-0.6772308349609375,0.147979736328125,0.7263946533203125
1747237111007400000,7.26739990234375,-0.7017669677734375,0.1548004150390625,0.7292327880859375
1747237111017430000,7.277429931640625,-0.70355224609375,0.16033935546875,0.7419586181640625
1747237111027461000,7.287461181640625,-0.6844635009765625,0.1611175537109375,0.7471466064453125
1747237111037492000,7.297491943359375,-0.665802001953125,0.159515380859375,0.7464447021484375
1747237111047523000,7.307523193359375,-0.6615447998046875,0.15777587890625,0.7328948974609375
1747237111057554000,7.317553955078125,-0.670562744140625,0.1579132080078125,0.711334228515625
1747237111067585000,7.3275849609375,-0.68896484375,0.1658782958984375,0.6876220703125
1747237111077615900,7.337615966796875,-0.7051849365234375,0.1728668212890625,0.6732177734375
1747237111087647000,7.34764697265625,-0.71484375,0.175445556640625,0.6681671142578125
1747237111097677800,7.357677734375,-0.71319580078125,0.1781158447265625,0.661041259765625
1747237111107709200,7.367709228515625,-0.6995697021484375,0.1820526123046875,0.6649017333984375
1747237111117740000,7.377739990234375,-0.6785125732421875,0.1839141845703125,0.6811065673828125
1747237111127771100,7.387771240234375,-0.6728057861328125,0.1893157958984375,0.69354248046875
1747237111137801200,7.39780126953125,-0.6797637939453125,0.190338134765625,0.6904296875
1747237111147832000,7.40783203125,-0.69183349609375,0.1849822998046875,0.684814453125
1747237111157863200,7.41786328125,-0.7027587890625,0.1808013916015625,0.6840667724609375
1747237111167894000,7.42789404296875,-0.705535888671875,0.178253173828125,0.68536376953125
1747237111177925000,7.437925048828125,-0.6999053955078125,0.1762237548828125,0.694854736328125
1747237111187956000,7.4479560546875,-0.6939697265625,0.1764984130859375,0.70526123046875
1747237111197987000,7.457987060546875,-0.6855010986328125,0.1779327392578125,0.7175140380859375
1747237111208018200,7.46801806640625,-0.68267822265625,0.179107666015625,0.7252044677734375
1747237111218049000,7.478049072265625,-0.6803436279296875,0.18157958984375,0.733856201171875
1747237111228080000,7.488080078125,-0.6758880615234375,0.1817169189453125,0.7392120361328125
1747237111238111000,7.498111083984375,-0.6730804443359375,0.1783294677734375,0.739898681640625
1747237111248142000,7.50814208984375,-0.669342041015625,0.1747894287109375,0.740203857421875
1747237111258172200,7.518172119140625,-0.6643218994140625,0.171234130859375,0.7387542724609375
1747237111268203000,7.528203125,-0.660369873046875,0.170806884765625,0.74090576171875
1747237111278234000,7.538234130859375,-0.659759521484375,0.1709747314453125,0.743408203125
1747237111288265000,7.548264892578125,-0.659149169921875,0.1738739013671875,0.7464599609375
1747237111298296000,7.558296142578125,-0.6568450927734375,0.1760101318359375,0.7540130615234375
1747237111308327000,7.568326904296875,-0.6540679931640625,0.18206787109375,0.7575225830078125
1747237111318358000,7.57835791015625,-0.655181884765625,0.185760498046875,0.760284423828125
1747237111328389000,7.58838916015625,-0.6519317626953125,0.18670654296875,0.7620086669921875
1747237111338420200,7.598420166015625,-0.650848388671875,0.18621826171875,0.763702392578125
1747237111348451000,7.608451171875,-0.6524200439453125,0.18603515625,0.7636566162109375
1747237111358482200,7.618482177734375,-0.6537933349609375,0.180877685546875,0.759002685546875
1747237111368513000,7.628512939453125,-0.6561431884765625,0.175079345703125,0.752899169921875
1747237111378544000,7.638544189453125,-0.6549530029296875,0.1719818115234375,0.7490997314453125
1747237111388574200,7.64857421875,-0.65545654296875,0.166229248046875,0.743133544921875
1747237111398605000,7.65860498046875,-0.6556854248046875,0.15924072265625,0.733306884765625
1747237111408636200,7.66863623046875,-0.657379150390625,0.1546630859375,0.7294464111328125
1747237111418667000,7.6786669921875,-0.6607818603515625,0.1495361328125,0.7240753173828125
1747237111428698000,7.688697998046875,-0.6639556884765625,0.1468963623046875,0.7208251953125
1747237111438729000,7.69872900390625,-0.664886474609375,0.1469879150390625,0.720977783203125
1747237111448760000,7.708760009765625,-0.6659698486328125,0.1451263427734375,0.718353271484375
1747237111458791000,7.718791015625,-0.6680755615234375,0.1424560546875,0.7173919677734375
1747237111468822000,7.728822021484375,-0.6652679443359375,0.144439697265625,0.7226409912109375
1747237111478852900,7.738852783203125,-0.66729736328125,0.144134521484375,0.7184600830078125
1747237111488884000,7.748884033203125,-0.6713104248046875,0.1414642333984375,0.716400146484375
1747237111498915000,7.7589150390625,-0.6739654541015625,0.1362762451171875,0.71636962890625
1747237111508945000,7.76894482421875,-0.6762847900390625,0.13470458984375,0.714080810546875
1747237111518976000,7.77897607421875,-0.6757659912109375,0.1329803466796875,0.7146759033203125
1747237111529006800,7.7890068359375,-0.673828125,0.1344451904296875,0.7143402099609375
1747237111539038000,7.799037841796875,-0.671173095703125,0.1351318359375,0.7164306640625
1747237111549069000,7.809069091796875,-0.672698974609375,0.1389007568359375,0.7203369140625
1747237111559100200,7.81910009765625,-0.6717376708984375,0.14306640625,0.72052001953125
1747237111569131000,7.829131103515625,-0.6764373779296875,0.1488189697265625,0.7188262939453125
1747237111579162000,7.839162109375,-0.679656982421875,0.1526336669921875,0.7127685546875
1747237111589193200,7.849193115234375,-0.6811370849609375,0.1540069580078125,0.70770263671875
1747237111599224000,7.85922412109375,-0.6808929443359375,0.1519012451171875,0.7072296142578125
1747237111609255200,7.869255126953125,-0.681671142578125,0.151123046875,0.7080078125
1747237111619286000,7.8792861328125,-0.683441162109375,0.151123046875,0.7086639404296875
1747237111629316000,7.889316162109375,-0.6850738525390625,0.15460205078125,0.7132110595703125
1747237111639347200,7.89934716796875,-0.68499755859375,0.1562957763671875,0.71807861328125
1747237111649378000,7.9093779296875,-0.6859283447265625,0.1591644287109375,0.727996826171875
1747237111659409200,7.9194091796875,-0.6806640625,0.1629180908203125,0.7368621826171875
1747237111669440000,7.92943994140625,-0.6758575439453125,0.1655426025390625,0.745758056640625
1747237111679471000,7.93947119140625,-0.6692657470703125,0.1708984375,0.7467803955078125
1747237111689502000,7.949501953125,-0.6678924560546875,0.1741180419921875,0.7455596923828125
1747237111699533000,7.959532958984375,-0.66632080078125,0.1751708984375,0.7435302734375
1747237111709564000,7.96956396484375,-0.669036865234375,0.1778411865234375,0.7388916015625
1747237111719595000,7.979594970703125,-0.668426513671875,0.1813812255859375,0.7335205078125
1747237111729626000,7.989626220703125,-0.666229248046875,0.1815185546875,0.727691650390625
1747237111739657200,7.9996572265625,-0.66455078125,0.179840087890625,0.727752685546875
1747237111749688000,8.00968798828125,-0.6616973876953125,0.1803741455078125,0.725189208984375
1747237111759718000,8.0197177734375,-0.66229248046875,0.1799163818359375,0.7178497314453125
1747237111769749200,8.029749267578126,-0.658905029296875,0.1778564453125,0.718353271484375
1747237111779780000,8.039780029296875,-0.6569366455078125,0.1761932373046875,0.7192840576171875
1747237111789811200,8.049811279296875,-0.655853271484375,0.1705169677734375,0.717041015625
1747237111799842000,8.059842041015624,-0.654205322265625,0.1695709228515625,0.71038818359375
1747237111809873200,8.069873046875,-0.649688720703125,0.154693603515625,0.7152252197265625
1747237111819904000,8.079904052734374,-0.6432342529296875,0.1428985595703125,0.723236083984375
1747237111829935000,8.08993505859375,-0.6427459716796875,0.1420135498046875,0.727935791015625
1747237111839966000,8.099966064453126,-0.64166259765625,0.135009765625,0.7369232177734375
1747237111849997000,8.1099970703125,-0.6464385986328125,0.1294403076171875,0.742919921875
1747237111860028000,8.12002783203125,-0.64569091796875,0.1208038330078125,0.75439453125
1747237111870059000,8.13005908203125,-0.6376953125,0.11376953125,0.77392578125
1747237111880090000,8.140090087890625,-0.6371002197265625,0.1060943603515625,0.783660888671875
1747237111890120000,8.150119873046876,-0.637786865234375,0.0983428955078125,0.78643798828125
1747237111900151000,8.160151123046875,-0.6319580078125,0.0959930419921875,0.786224365234375
1747237111910182000,8.170181884765626,-0.6219329833984375,0.103302001953125,0.7966461181640625
1747237111920213000,8.180212890625,-0.6035919189453125,0.09881591796875,0.7965850830078125
1747237111930244000,8.190244140625,-0.5993499755859375,0.0895233154296875,0.791168212890625
1747237111940275000,8.20027490234375,-0.6017608642578125,0.082672119140625,0.7847747802734375
1747237111950306300,8.210306396484375,-0.6057586669921875,0.077117919921875,0.7767791748046875
1747237111960337200,8.220337158203124,-0.6140289306640625,0.072174072265625,0.771759033203125
1747237111970368300,8.2303681640625,-0.6159515380859375,0.0646209716796875,0.775299072265625
1747237111980399000,8.240399169921876,-0.6142425537109375,0.053131103515625,0.779327392578125
1747237111990430200,8.25043017578125,-0.60955810546875,0.033843994140625,0.7861480712890625
1747237112000461000,8.2604609375,-0.61090087890625,0.0232696533203125,0.7977447509765625
1747237112010491100,8.2704912109375,-0.6260986328125,0.047882080078125,0.8003082275390625
1747237112020522200,8.280522216796875,-0.6365814208984375,0.0706939697265625,0.78863525390625
1747237112030553000,8.290552978515626,-0.640045166015625,0.08416748046875,0.7769012451171875
1747237112040584200,8.300584228515625,-0.6378631591796875,0.096954345703125,0.7693634033203125
1747237112050615000,8.310614990234376,-0.6317138671875,0.1077880859375,0.768768310546875
1747237112060646100,8.320646240234375,-0.62896728515625,0.112335205078125,0.766754150390625
1747237112070677000,8.330677001953125,-0.6312408447265625,0.1204376220703125,0.76531982421875
1747237112080708000,8.3407080078125,-0.63677978515625,0.1256103515625,0.761749267578125
1747237112090739000,8.350739013671875,-0.6462860107421875,0.1300506591796875,0.7574920654296875
1747237112100770000,8.36077001953125,-0.65325927734375,0.13470458984375,0.755645751953125
1747237112110801000,8.37080078125,-0.6563262939453125,0.1372528076171875,0.7546844482421875
1747237112120832000,8.38083203125,-0.658172607421875,0.1385955810546875,0.749237060546875
1747237112130862800,8.39086279296875,-0.6601104736328125,0.138397216796875,0.74859619140625
1747237112140893000,8.400892822265625,-0.658538818359375,0.1381683349609375,0.7450714111328125
1747237112150924000,8.410924072265624,-0.6592559814453125,0.139617919921875,0.743408203125
1747237112160955000,8.420954833984375,-0.6573638916015625,0.139556884765625,0.7452239990234375
1747237112170986200,8.430986328125,-0.65570068359375,0.138641357421875,0.74627685546875
1747237112181017000,8.44101708984375,-0.653594970703125,0.136932373046875,0.744842529296875
1747237112191048200,8.451048095703126,-0.6510467529296875,0.1329193115234375,0.747100830078125
1747237112201079000,8.4610791015625,-0.649505615234375,0.13446044921875,0.747802734375
1747237112211110100,8.471110107421875,-0.6490936279296875,0.1323089599609375,0.74774169921875
1747237112221141000,8.48114111328125,-0.6519317626953125,0.133026123046875,0.751373291015625
1747237112231172000,8.491172119140625,-0.651031494140625,0.1324310302734375,0.7560577392578125
1747237112241203000,8.501202880859376,-0.652008056640625,0.13153076171875,0.763275146484375
1747237112251234000,8.511234130859375,-0.6519775390625,0.1338653564453125,0.7706451416015625
1747237112261265200,8.52126513671875,-0.649688720703125,0.13861083984375,0.7752685546875
1747237112271296000,8.5312958984375,-0.647369384765625,0.1454010009765625,0.778228759765625
1747237112281326000,8.541326171875,-0.6425323486328125,0.1505584716796875,0.7832183837890625
1747237112291357000,8.55135693359375,-0.6440582275390625,0.1547393798828125,0.78289794921875
1747237112301388000,8.561387939453125,-0.6428070068359375,0.15643310546875,0.7834625244140625
1747237112311418600,8.571418701171876,-0.644744873046875,0.160430908203125,0.7770843505859375
1747237112321449500,8.581449462890625,-0.6479644775390625,0.16046142578125,0.7703857421875
1747237112331480600,8.59148046875,-0.6481170654296875,0.1582489013671875,0.7617645263671875
1747237112341511400,8.601511474609374,-0.648651123046875,0.1546630859375,0.7580718994140625
1747237112351542500,8.61154248046875,-0.6566925048828125,0.1507110595703125,0.7481689453125
1747237112361573400,8.621573486328124,-0.663238525390625,0.14764404296875,0.7354888916015625
1747237112371604500,8.6316044921875,-0.6673583984375,0.1431732177734375,0.721771240234375
1747237112381635600,8.641635498046876,-0.668121337890625,0.1411590576171875,0.714813232421875
1747237112391666700,8.651666748046875,-0.6667022705078125,0.141265869140625,0.7139739990234375
1747237112401697500,8.661697509765625,-0.6630859375,0.144287109375,0.72003173828125
1747237112411727600,8.6717275390625,-0.661163330078125,0.142669677734375,0.729217529296875
1747237112421758700,8.6817587890625,-0.66131591796875,0.1425628662109375,0.7358856201171875
1747237112431789600,8.69178955078125,-0.6589508056640625,0.1400604248046875,0.7454833984375
1747237112441820700,8.701820556640625,-0.66162109375,0.137847900390625,0.75384521484375
1747237112451851500,8.7118515625,-0.6605072021484375,0.134674072265625,0.7581024169921875
1747237112461882600,8.721882568359375,-0.6556549072265625,0.1296234130859375,0.7602081298828125
1747237112471913500,8.73191357421875,-0.631744384765625,0.1320953369140625,0.783935546875
1747237112481944600,8.741944580078124,-0.62701416015625,0.134429931640625,0.80169677734375
1747237112491975400,8.751975341796875,-0.6592559814453125,0.1257781982421875,0.81805419921875
1747237112502006500,8.762006591796874,-0.6908721923828125,0.115264892578125,0.8204498291015625
1747237112512037600,8.77203759765625,-0.7041473388671875,0.1112060546875,0.8348846435546875
1747237112522068500,8.782068359375,-0.7183990478515625,0.1093597412109375,0.838104248046875
1747237112532099600,8.792099609375,-0.7391357421875,0.1021270751953125,0.8260955810546875
1747237112542130400,8.80213037109375,-0.75433349609375,0.094512939453125,0.7885589599609375
1747237112552160500,8.812160400390624,-0.720367431640625,0.1010894775390625,0.7679443359375
1747237112562191400,8.82219140625,-0.6778564453125,0.10882568359375,0.7214508056640625
1747237112572222500,8.832222412109376,-0.6478729248046875,0.1027984619140625,0.648590087890625
1747237112582253600,8.842253662109375,-0.614227294921875,0.08831787109375,0.567230224609375
1747237112592284400,8.852284423828126,-0.6004180908203125,0.0513916015625,0.513916015625
1747237112602315800,8.862315673828125,-0.609405517578125,0.0056915283203125,0.4983978271484375
1747237112612346600,8.8723466796875,-0.6157684326171875,-0.033782958984375,0.5194091796875
1747237112622377700,8.882377685546874,-0.626129150390625,-0.046142578125,0.567230224609375
1747237112632408600,8.89240869140625,-0.6443328857421875,-0.0258331298828125,0.619415283203125
1747237112642439700,8.902439697265624,-0.6548004150390625,0.0157012939453125,0.6728668212890625
1747237112652470500,8.912470458984375,-0.6507568359375,0.0562286376953125,0.7366180419921875
1747237112662501600,8.922501708984376,-0.643646240234375,0.0891876220703125,0.7887725830078125
1747237112672532500,8.932532470703125,-0.6382293701171875,0.1085357666015625,0.821746826171875
1747237112682563600,8.9425634765625,-0.6311187744140625,0.1131134033203125,0.845947265625
1747237112692594400,8.952594482421874,-0.6226959228515625,0.1051177978515625,0.8680267333984375
1747237112702624500,8.96262451171875,-0.6212310791015625,0.0934600830078125,0.8699798583984375
1747237112712655600,8.972655517578126,-0.6201324462890625,0.08154296875,0.8626861572265625
1747237112722686500,8.9826865234375,-0.6196441650390625,0.076202392578125,0.8421783447265625
1747237112732717600,8.992717529296876,-0.6263580322265625,0.0757293701171875,0.821533203125
1747237112742748400,9.00274853515625,-0.6383056640625,0.0809173583984375,0.8022308349609375
1747237112752779500,9.012779541015625,-0.651519775390625,0.0927734375,0.7782745361328125
1747237112762810400,9.022810302734374,-0.66424560546875,0.1061859130859375,0.7590179443359375
1747237112772841500,9.032841552734375,-0.6740264892578125,0.12103271484375,0.7394256591796875
1747237112782872600,9.04287255859375,-0.6776885986328125,0.133331298828125,0.72509765625
1747237112792903700,9.052903564453125,-0.6756134033203125,0.144439697265625,0.711517333984375
1747237112802934500,9.0629345703125,-0.6682891845703125,0.146728515625,0.703460693359375
1747237112812965600,9.072965576171875,-0.66070556640625,0.147491455078125,0.7016754150390625
1747237112822996700,9.082996826171875,-0.65118408203125,0.1443328857421875,0.715301513671875
1747237112833027600,9.093027587890624,-0.647552490234375,0.1410064697265625,0.738739013671875
1747237112843058700,9.10305859375,-0.6427001953125,0.1380615234375,0.76556396484375
1747237112853088500,9.113088623046876,-0.6410675048828125,0.134765625,0.7870941162109375
1747237112863119600,9.12311962890625,-0.6392669677734375,0.1341705322265625,0.799835205078125
1747237112873150500,9.133150390625,-0.639739990234375,0.1358489990234375,0.79864501953125
1747237112883181600,9.143181640625,-0.636993408203125,0.138153076171875,0.7900238037109375
1747237112893212700,9.153212646484375,-0.6352386474609375,0.14215087890625,0.7733154296875
1747237112903243500,9.163243408203124,-0.639556884765625,0.140838623046875,0.748504638671875
1747237112913274600,9.173274658203125,-0.642852783203125,0.1342926025390625,0.7347564697265625
1747237112923305500,9.183305419921876,-0.6438751220703125,0.125823974609375,0.7260589599609375
1747237112933336600,9.193336669921875,-0.646270751953125,0.1227874755859375,0.7277374267578125
1747237112943367400,9.203367431640626,-0.6480560302734375,0.123565673828125,0.7387237548828125
1747237112953398500,9.2133984375,-0.65545654296875,0.127288818359375,0.7519683837890625
1747237112963429400,9.223429443359375,-0.659881591796875,0.1309661865234375,0.766448974609375
1747237112973460700,9.233460693359374,-0.66314697265625,0.1331939697265625,0.7742462158203125
1747237112983491600,9.24349169921875,-0.663604736328125,0.1321868896484375,0.77960205078125
1747237112993522700,9.253522705078124,-0.660064697265625,0.13043212890625,0.7825469970703125
1747237113003553500,9.263553466796875,-0.6549530029296875,0.130340576171875,0.78094482421875
1747237113013583600,9.27358349609375,-0.650543212890625,0.12420654296875,0.781585693359375
1747237113023614700,9.28361474609375,-0.6478729248046875,0.1192169189453125,0.7736358642578125
1747237113033645600,9.2936455078125,-0.6448211669921875,0.1161041259765625,0.7593841552734375
1747237113043676700,9.3036767578125,-0.6451416015625,0.11419677734375,0.73736572265625
1747237113053707500,9.31370751953125,-0.6446533203125,0.108001708984375,0.717864990234375
1747237113063738600,9.323738525390626,-0.641387939453125,0.100799560546875,0.71087646484375
1747237113073769500,9.33376953125,-0.6375579833984375,0.0997314453125,0.715911865234375
1747237113083800600,9.343800537109376,-0.6317901611328125,0.1031494140625,0.730255126953125
1747237113093831400,9.35383154296875,-0.629974365234375,0.1109619140625,0.7493896484375
1747237113103862500,9.363862548828125,-0.6271514892578125,0.119720458984375,0.7670440673828125
1747237113113893600,9.3738935546875,-0.625396728515625,0.1224822998046875,0.7777557373046875
1747237113123924500,9.383924560546875,-0.6258697509765625,0.1197052001953125,0.784088134765625
1747237113133955600,9.39395556640625,-0.6244354248046875,0.115966796875,0.788330078125
1747237113143986400,9.403986328125,-0.6213226318359375,0.1152801513671875,0.791717529296875
1747237113154017500,9.414017578125,-0.618011474609375,0.118072509765625,0.7913665771484375
1747237113164048600,9.424048583984375,-0.61822509765625,0.1204681396484375,0.78997802734375
1747237113174078500,9.434078369140625,-0.6197967529296875,0.126068115234375,0.7908782958984375
1747237113184109600,9.444109619140624,-0.6192779541015625,0.130096435546875,0.791015625
1747237113194140700,9.454140625,-0.61572265625,0.1294708251953125,0.7928466796875
1747237113204171800,9.464171875,-0.618316650390625,0.13092041015625,0.7981414794921875
1747237113214202600,9.47420263671875,-0.629730224609375,0.1358184814453125,0.8058319091796875
1747237113224233700,9.484233642578126,-0.6368408203125,0.14154052734375,0.809295654296875
1747237113234264600,9.4942646484375,-0.64117431640625,0.141815185546875,0.802978515625
1747237113244295700,9.504295654296875,-0.646026611328125,0.1402130126953125,0.7908935546875
1747237113254326500,9.514326416015624,-0.644805908203125,0.136474609375,0.7745361328125
1747237113264357600,9.524357666015625,-0.6468505859375,0.1317291259765625,0.7544403076171875
1747237113274388500,9.534388427734376,-0.65533447265625,0.128631591796875,0.7217864990234375
1747237113284419600,9.544419677734375,-0.6609649658203125,0.1194000244140625,0.6920623779296875
1747237113294450400,9.554450439453126,-0.6636505126953125,0.1044921875,0.67724609375
1747237113304481500,9.5644814453125,-0.6675262451171875,0.09014892578125,0.6702880859375
1747237113314512100,9.57451220703125,-0.67034912109375,0.0870513916015625,0.673614501953125
1747237113324543000,9.58454296875,-0.677947998046875,0.09771728515625,0.6827850341796875
1747237113334574000,9.594573974609375,-0.6828155517578125,0.116119384765625,0.7017822265625
1747237113344604000,9.60460400390625,-0.6835784912109375,0.130340576171875,0.7217559814453125
1747237113354635000,9.614635009765625,-0.6789093017578125,0.140533447265625,0.733551025390625
1747237113364666000,9.624666015625,-0.6748199462890625,0.1463623046875,0.7447662353515625
1747237113374697000,9.634697021484374,-0.6710662841796875,0.14111328125,0.74981689453125
1747237113384728000,9.64472802734375,-0.66839599609375,0.1319122314453125,0.7454986572265625
1747237113394759000,9.654759033203124,-0.6639251708984375,0.1217803955078125,0.7451324462890625
1747237113404790000,9.6647900390625,-0.657501220703125,0.11468505859375,0.7447052001953125
1747237113414820900,9.67482080078125,-0.6519012451171875,0.1107940673828125,0.7483062744140625
1747237113424852000,9.68485205078125,-0.6492156982421875,0.11065673828125,0.750244140625
1747237113434882800,9.6948828125,-0.64654541015625,0.11767578125,0.7538909912109375
1747237113444914000,9.704913818359374,-0.6446380615234375,0.12457275390625,0.7505950927734375
1747237113454944800,9.71494482421875,-0.6480865478515625,0.129852294921875,0.7476043701171875
1747237113464976000,9.724975830078124,-0.6515960693359375,0.1324615478515625,0.744384765625
1747237113475006700,9.7350068359375,-0.6548614501953125,0.13153076171875,0.7401580810546875
1747237113485038000,9.7450380859375,-0.654998779296875,0.1301727294921875,0.740631103515625
1747237113495069000,9.75506884765625,-0.65570068359375,0.13189697265625,0.7445526123046875
1747237113505100000,9.76510009765625,-0.6530303955078125,0.1339569091796875,0.7515869140625
1747237113515131000,9.775130859375,-0.648406982421875,0.1311798095703125,0.7532501220703125
1747237113525161000,9.785160888671875,-0.64349365234375,0.1305999755859375,0.755279541015625
1747237113535192000,9.795192138671876,-0.64111328125,0.1334686279296875,0.7604827880859375
1747237113545223000,9.805222900390625,-0.6394805908203125,0.134521484375,0.760223388671875
1747237113555254000,9.81525390625,-0.639862060546875,0.1327972412109375,0.757598876953125
1747237113565284900,9.825284912109375,-0.6367950439453125,0.1300811767578125,0.7579498291015625
1747237113575316000,9.83531591796875,-0.633087158203125,0.12701416015625,0.7601470947265625
1747237113585346800,9.845346923828124,-0.6339874267578125,0.12933349609375,0.761932373046875
1747237113595378000,9.8553779296875,-0.63433837890625,0.128143310546875,0.76416015625
1747237113605409000,9.865408935546874,-0.634765625,0.1280670166015625,0.7699127197265625
1747237113615440000,9.87543994140625,-0.6304168701171875,0.1325836181640625,0.7739410400390625
1747237113625471000,9.885470947265626,-0.6281890869140625,0.136444091796875,0.7770233154296875
1747237113635501800,9.895501708984375,-0.6241912841796875,0.1390380859375,0.7795257568359375
1747237113645533000,9.905532958984375,-0.623870849609375,0.1404571533203125,0.77880859375
1747237113655563800,9.915563720703124,-0.6280059814453125,0.140625,0.7782440185546875
1747237113665595000,9.925594970703125,-0.6313934326171875,0.1372528076171875,0.77301025390625
1747237113675626000,9.9356259765625,-0.63031005859375,0.1349945068359375,0.7723541259765625
1747237113685657000,9.945656982421875,-0.6319427490234375,0.1319427490234375,0.7696380615234375
1747237113695688000,9.95568798828125,-0.63507080078125,0.1318817138671875,0.76959228515625
1747237113705719000,9.965718994140625,-0.6400146484375,0.1302947998046875,0.76910400390625
1747237113715749000,9.9757490234375,-0.643798828125,0.130584716796875,0.7658843994140625
1747237113725780000,9.985780029296874,-0.6460113525390625,0.1349334716796875,0.761932373046875
1747237113735811000,9.99581103515625,-0.6453857421875,0.1328125,0.7613677978515625
1747237113745842000,10.005842041015624,-0.6396942138671875,0.1331634521484375,0.7666778564453125
1747237113755873000,10.015873046875,-0.63543701171875,0.1333770751953125,0.7716064453125
1747237113765904000,10.02590380859375,-0.62933349609375,0.13397216796875,0.776611328125
1747237113775935000,10.03593505859375,-0.63189697265625,0.135955810546875,0.7732696533203125
1747237113785965800,10.0459658203125,-0.6324462890625,0.1339111328125,0.769805908203125
1747237113795997000,10.055996826171874,-0.63037109375,0.13311767578125,0.7752227783203125
1747237113806027800,10.06602783203125,-0.62841796875,0.1328887939453125,0.773406982421875
1747237113816059000,10.076058837890624,-0.6241607666015625,0.128875732421875,0.7705078125
1747237113826090000,10.086090087890625,-0.6220550537109375,0.12451171875,0.767242431640625
1747237113836120800,10.096120849609376,-0.62408447265625,0.124176025390625,0.761871337890625
1747237113846152000,10.10615185546875,-0.62774658203125,0.122161865234375,0.7624969482421875
1747237113856183000,10.11618310546875,-0.6326446533203125,0.11572265625,0.7646331787109375
1747237113866214100,10.126214111328125,-0.63818359375,0.112823486328125,0.77252197265625
1747237113876245000,10.136244873046875,-0.6380767822265625,0.1068115234375,0.779266357421875
1747237113886276000,10.146276123046874,-0.636474609375,0.1064453125,0.7821044921875
1747237113896307000,10.156306884765625,-0.6361083984375,0.1029510498046875,0.7772979736328125
1747237113906338000,10.166338134765626,-0.6343231201171875,0.1029510498046875,0.767791748046875
1747237113916368100,10.1763681640625,-0.64019775390625,0.10284423828125,0.7552490234375
1747237113926399000,10.18639892578125,-0.648193359375,0.1013336181640625,0.74346923828125
1747237113936430000,10.19643017578125,-0.650054931640625,0.1009674072265625,0.734344482421875
1747237113946461000,10.2064609375,-0.6522674560546875,0.1031036376953125,0.7293701171875
1747237113956492000,10.216491943359374,-0.654571533203125,0.105316162109375,0.7291717529296875
1747237113966523000,10.22652294921875,-0.6543731689453125,0.1083221435546875,0.7267913818359375
1747237113976554000,10.236553955078126,-0.652679443359375,0.110992431640625,0.731414794921875
1747237113986584800,10.246584716796875,-0.653350830078125,0.1136932373046875,0.7321624755859375
1747237113996616000,10.256615966796875,-0.65106201171875,0.1123199462890625,0.736480712890625
1747237114006646800,10.266646728515624,-0.65240478515625,0.10894775390625,0.7362213134765625
1747237114016678000,10.276677978515625,-0.649017333984375,0.109405517578125,0.7381744384765625
1747237114026708700,10.286708740234374,-0.646270751953125,0.109283447265625,0.7420501708984375
1747237114036739800,10.29673974609375,-0.6435699462890625,0.112945556640625,0.7484283447265625
1747237114046771000,10.30677099609375,-0.6417236328125,0.1174774169921875,0.7548675537109375
1747237114056802000,10.316802001953125,-0.63714599609375,0.1203765869140625,0.763031005859375
1747237114066833000,10.3268330078125,-0.63372802734375,0.123291015625,0.7674560546875
1747237114076864000,10.336864013671875,-0.6318817138671875,0.1231231689453125,0.767364501953125
1747237114086895000,10.34689501953125,-0.629364013671875,0.123046875,0.7625732421875
1747237114096926000,10.356926025390624,-0.6304931640625,0.1219635009765625,0.7575225830078125
1747237114106957000,10.36695703125,-0.6336669921875,0.1210174560546875,0.756317138671875
1747237114116988000,10.37698779296875,-0.6354522705078125,0.1230926513671875,0.759033203125
1747237114127019000,10.38701904296875,-0.6390380859375,0.127471923828125,0.7602691650390625
1747237114137048800,10.397048828125,-0.642852783203125,0.130615234375,0.7664642333984375
1747237114147080000,10.407079833984374,-0.6425628662109375,0.1338043212890625,0.770904541015625
1747237114157111000,10.417111083984375,-0.6414642333984375,0.135467529296875,0.772125244140625
1747237114167142000,10.427141845703124,-0.644256591796875,0.134765625,0.7696075439453125
1747237114177173000,10.437173095703125,-0.641448974609375,0.1298980712890625,0.7629241943359375
1747237114187203800,10.447203857421876,-0.6355133056640625,0.129638671875,0.75933837890625
1747237114197235000,10.45723486328125,-0.62823486328125,0.1271209716796875,0.761627197265625
1747237114207265800,10.467265869140626,-0.6219329833984375,0.126129150390625,0.7617645263671875
1747237114217297000,10.477296875,-0.6182861328125,0.1269378662109375,0.768341064453125
1747237114227327700,10.48732763671875,-0.614227294921875,0.126495361328125,0.778564453125
1747237114237359000,10.497359130859374,-0.6139068603515625,0.126251220703125,0.7885284423828125
1747237114247390000,10.507389892578125,-0.61505126953125,0.1264190673828125,0.7971343994140625
1747237114257421000,10.517421142578126,-0.6129608154296875,0.125244140625,0.8003082275390625
1747237114267452000,10.527451904296875,-0.60845947265625,0.1225738525390625,0.8012237548828125
1747237114277483000,10.53748291015625,-0.6016693115234375,0.1204833984375,0.798095703125
1747237114287513900,10.547513916015625,-0.6002197265625,0.1159210205078125,0.801422119140625
1747237114297545000,10.557544921875,-0.5990447998046875,0.1127166748046875,0.8074493408203125
1747237114307576000,10.567576171875,-0.5989532470703125,0.1172943115234375,0.8082427978515625
1747237114317607200,10.577607177734375,-0.6031341552734375,0.1243438720703125,0.8054656982421875
1747237114327638300,10.58763818359375,-0.6097259521484375,0.1267852783203125,0.7996368408203125
1747237114337669000,10.597669189453125,-0.6151123046875,0.125030517578125,0.79541015625
1747237114347700200,10.6077001953125,-0.6119384765625,0.12384033203125,0.7955780029296875
1747237114357731000,10.61773095703125,-0.60906982421875,0.11920166015625,0.789581298828125
1747237114367761200,10.62776123046875,-0.609222412109375,0.113037109375,0.78515625
1747237114377792000,10.6377919921875,-0.6115570068359375,0.1094970703125,0.7791748046875
1747237114387823000,10.647822998046875,-0.6172943115234375,0.110809326171875,0.774871826171875
1747237114397854200,10.657854248046876,-0.621368408203125,0.112884521484375,0.7766571044921875
1747237114407885000,10.667885009765625,-0.6244964599609375,0.11822509765625,0.7741546630859375
1747237114417916400,10.67791650390625,-0.6255035400390625,0.121337890625,0.7757568359375
1747237114427947300,10.687947265625,-0.6282196044921875,0.1261138916015625,0.77435302734375
1747237114437978400,10.697978271484375,-0.628021240234375,0.1251373291015625,0.7678375244140625
1747237114448009200,10.70800927734375,-0.6305999755859375,0.124755859375,0.7624969482421875
1747237114458040300,10.718040283203125,-0.637237548828125,0.1210174560546875,0.7545928955078125
1747237114468071200,10.7280712890625,-0.6398162841796875,0.1181488037109375,0.7506561279296875
1747237114478102300,10.738102294921875,-0.63995361328125,0.115325927734375,0.75
1747237114488133000,10.748133056640626,-0.6404876708984375,0.1172332763671875,0.7488250732421875
1747237114498164200,10.758164306640625,-0.6414947509765625,0.118438720703125,0.748016357421875
1747237114508195000,10.768195068359375,-0.6361846923828125,0.1194000244140625,0.7569732666015625
1747237114518226200,10.77822607421875,-0.634307861328125,0.1243743896484375,0.7646026611328125
1747237114528257000,10.788257080078125,-0.6374664306640625,0.128387451171875,0.768157958984375
1747237114538288000,10.7982880859375,-0.6362762451171875,0.1307373046875,0.7695770263671875
1747237114548319000,10.808319091796875,-0.6337432861328125,0.1283111572265625,0.7675933837890625
1747237114558350000,10.81835009765625,-0.634796142578125,0.1261749267578125,0.7646331787109375
1747237114568381200,10.828381103515625,-0.63604736328125,0.123260498046875,0.756103515625
1747237114578412300,10.838412353515626,-0.6326446533203125,0.1183013916015625,0.753326416015625
1747237114588443400,10.848443359375,-0.633148193359375,0.117156982421875,0.7525787353515625
1747237114598474200,10.85847412109375,-0.63751220703125,0.1150360107421875,0.7564544677734375
1747237114608505300,10.86850537109375,-0.6429290771484375,0.1176605224609375,0.76031494140625
1747237114618536200,10.8785361328125,-0.64556884765625,0.123870849609375,0.760345458984375
1747237114628567300,10.8885673828125,-0.64691162109375,0.12811279296875,0.765655517578125
1747237114638597400,10.898597412109375,-0.6449737548828125,0.130096435546875,0.7676239013671875
1747237114648628200,10.908628173828125,-0.64398193359375,0.133758544921875,0.766082763671875
1747237114658659300,10.918659423828124,-0.641815185546875,0.1331329345703125,0.757904052734375
1747237114668690200,10.928690185546875,-0.6421051025390625,0.128265380859375,0.752166748046875
1747237114678721300,10.93872119140625,-0.6402130126953125,0.1244964599609375,0.7472381591796875
1747237114688752000,10.948752197265625,-0.6392974853515625,0.12127685546875,0.7372283935546875
1747237114698783200,10.958783203125,-0.640472412109375,0.1219024658203125,0.733978271484375
1747237114708814000,10.96881396484375,-0.6401214599609375,0.1237335205078125,0.7413330078125
1747237114718845200,10.97884521484375,-0.6398162841796875,0.125244140625,0.7521514892578125
1747237114728876000,10.9888759765625,-0.63958740234375,0.1282196044921875,0.764739990234375
1747237114738907100,10.9989072265625,-0.640472412109375,0.1305694580078125,0.7766571044921875
1747237114748938000,11.00893798828125,-0.63946533203125,0.1314849853515625,0.7855072021484375
1747237114758969000,11.018968994140625,-0.6362762451171875,0.1316070556640625,0.785675048828125
1747237114769000200,11.029000244140626,-0.6331939697265625,0.1291961669921875,0.779571533203125
1747237114779031300,11.03903125,-0.6309356689453125,0.12652587890625,0.7716522216796875
1747237114789062100,11.049062255859376,-0.62921142578125,0.1245880126953125,0.76483154296875
1747237114799093200,11.05909326171875,-0.6304168701171875,0.121337890625,0.7557525634765625
1747237114809124400,11.069124267578125,-0.629913330078125,0.1191864013671875,0.751617431640625
1747237114819155200,11.0791552734375,-0.631439208984375,0.1186676025390625,0.7503814697265625
1747237114829186300,11.089186279296875,-0.633392333984375,0.1178131103515625,0.752197265625
1747237114839217200,11.099217041015624,-0.6343841552734375,0.119354248046875,0.7584075927734375
1747237114849248300,11.109248291015625,-0.6317138671875,0.1208038330078125,0.7680816650390625
1747237114859279000,11.119279052734376,-0.6320343017578125,0.1239013671875,0.7755279541015625
1747237114869310200,11.129310302734375,-0.631134033203125,0.1248321533203125,0.77947998046875
1747237114879341000,11.139341064453125,-0.6308135986328125,0.1273193359375,0.7860870361328125
1747237114889372200,11.1493720703125,-0.6285552978515625,0.1276397705078125,0.7798614501953125
1747237114899403000,11.159403076171875,-0.6273651123046875,0.1236419677734375,0.7711639404296875
1747237114909434000,11.16943408203125,-0.6247100830078125,0.11627197265625,0.7636260986328125
1747237114919465200,11.17946533203125,-0.6214599609375,0.1117095947265625,0.756988525390625
1747237114929496300,11.189496337890626,-0.6248626708984375,0.11328125,0.7565765380859375
1747237114939527200,11.199527099609375,-0.6260528564453125,0.1181488037109375,0.7593994140625
1747237114949557000,11.209556884765625,-0.6267852783203125,0.1216583251953125,0.7635498046875
1747237114959588400,11.21958837890625,-0.630279541015625,0.1234588623046875,0.767059326171875
1747237114969619200,11.229619140625,-0.63323974609375,0.1230621337890625,0.76806640625
1747237114979650300,11.239650390625,-0.6341705322265625,0.1195831298828125,0.7649993896484375
1747237114989681200,11.24968115234375,-0.636077880859375,0.1193084716796875,0.76239013671875
1747237114999712300,11.259712158203126,-0.633148193359375,0.118499755859375,0.7568817138671875
1747237115009743000,11.2697431640625,-0.6310272216796875,0.1187286376953125,0.7537078857421875
1747237115019774200,11.279774169921875,-0.6259765625,0.1180267333984375,0.75054931640625
1747237115029805000,11.28980517578125,-0.62493896484375,0.1178131103515625,0.757049560546875
1747237115039836200,11.299836181640625,-0.6242523193359375,0.12139892578125,0.769287109375
1747237115049867300,11.3098671875,-0.6266326904296875,0.12493896484375,0.777587890625
1747237115059898000,11.319898193359375,-0.62738037109375,0.124481201171875,0.7810211181640625
1747237115069929200,11.32992919921875,-0.6266021728515625,0.12689208984375,0.786956787109375
1747237115079960000,11.3399599609375,-0.625701904296875,0.1263427734375,0.7977447509765625
1747237115089991200,11.3499912109375,-0.6233367919921875,0.1266326904296875,0.80584716796875
1747237115100022000,11.36002197265625,-0.6202392578125,0.12432861328125,0.81134033203125
1747237115110053400,11.370053466796875,-0.61968994140625,0.1237945556640625,0.8155059814453125
1747237115120084200,11.380084228515624,-0.622833251953125,0.1221466064453125,0.8094482421875
1747237115130115300,11.390115234375,-0.6225738525390625,0.120635986328125,0.7966766357421875
1747237115140146200,11.400146240234376,-0.6211090087890625,0.116485595703125,0.7868194580078125
1747237115150177300,11.41017724609375,-0.6221923828125,0.1166839599609375,0.7801361083984375
1747237115160208100,11.4202080078125,-0.6214599609375,0.1166229248046875,0.775238037109375
1747237115170239200,11.4302392578125,-0.62322998046875,0.1157989501953125,0.775390625
1747237115180270000,11.44027001953125,-0.629547119140625,0.11553955078125,0.766693115234375
1747237115190301200,11.45030126953125,-0.6370849609375,0.106414794921875,0.747406005859375
1747237115200332300,11.460332275390625,-0.6411590576171875,0.092926025390625,0.7274169921875
1747237115210363100,11.470363037109376,-0.6337890625,0.0865478515625,0.7251739501953125
1747237115220394200,11.480394287109375,-0.632537841796875,0.088653564453125,0.7299652099609375
1747237115230425000,11.490425048828126,-0.6347198486328125,0.0931549072265625,0.7335968017578125
1747237115240456200,11.500456298828125,-0.6355133056640625,0.104339599609375,0.7451019287109375
1747237115250487000,11.510487060546875,-0.6373138427734375,0.1121063232421875,0.7597198486328125
1747237115260518100,11.52051806640625,-0.6388702392578125,0.1151275634765625,0.7709197998046875
1747237115270549200,11.53054931640625,-0.6408233642578125,0.1173553466796875,0.780181884765625
1747237115280580400,11.540580322265624,-0.6407318115234375,0.1168212890625,0.785064697265625
1747237115290611200,11.550611083984375,-0.6411895751953125,0.119110107421875,0.7842254638671875
1747237115300642300,11.560642333984376,-0.640472412109375,0.122711181640625,0.7845306396484375
1747237115310672600,11.570672607421875,-0.640655517578125,0.1268157958984375,0.7764129638671875
1747237115320703700,11.580703857421875,-0.6441497802734375,0.123931884765625,0.7666168212890625
1747237115330734800,11.59073486328125,-0.64300537109375,0.1199493408203125,0.7557220458984375
1747237115340765700,11.600765625,-0.6395416259765625,0.1138458251953125,0.7479705810546875
1747237115350796800,11.610796875,-0.6352386474609375,0.1113128662109375,0.7451629638671875
1747237115360827600,11.62082763671875,-0.6325225830078125,0.1109771728515625,0.7528533935546875
1747237115370858800,11.630858642578126,-0.6321868896484375,0.1155548095703125,0.76019287109375
1747237115380889600,11.6408896484375,-0.6316375732421875,0.118377685546875,0.767425537109375
1747237115390920700,11.650920654296876,-0.63238525390625,0.1222991943359375,0.771484375
1747237115400951600,11.66095166015625,-0.633270263671875,0.1234588623046875,0.7731170654296875
1747237115410982700,11.670982666015625,-0.6352691650390625,0.1219482421875,0.772247314453125
1747237115421013800,11.681013671875,-0.6345062255859375,0.1210174560546875,0.7697601318359375
1747237115431044900,11.691044921875,-0.6306915283203125,0.1174163818359375,0.7697601318359375
1747237115441075700,11.70107568359375,-0.6271209716796875,0.117431640625,0.76861572265625
1747237115451106800,11.71110693359375,-0.6252288818359375,0.1170654296875,0.771820068359375
1747237115461137700,11.7211376953125,-0.6243438720703125,0.1205291748046875,0.773651123046875
1747237115471168800,11.731168701171875,-0.6257781982421875,0.1210479736328125,0.773101806640625
1747237115481199600,11.74119970703125,-0.6290740966796875,0.1224822998046875,0.77392578125
1747237115491230700,11.751230712890624,-0.631256103515625,0.1220550537109375,0.7748870849609375
1747237115501261800,11.76126171875,-0.635528564453125,0.1185455322265625,0.776702880859375
1747237115511292700,11.771292724609374,-0.6345367431640625,0.1153411865234375,0.7757415771484375
1747237115521323800,11.78132373046875,-0.634246826171875,0.1129913330078125,0.77142333984375
1747237115531354600,11.791354736328126,-0.6323089599609375,0.1114959716796875,0.7655792236328125
1747237115541385700,11.8013857421875,-0.6312408447265625,0.1113433837890625,0.762939453125
1747237115551416600,11.81141650390625,-0.6312103271484375,0.1135101318359375,0.7617950439453125
1747237115561447700,11.82144775390625,-0.63275146484375,0.1160430908203125,0.758331298828125
1747237115571478800,11.831478759765625,-0.63323974609375,0.1176910400390625,0.76019287109375
1747237115581510000,11.841510009765624,-0.636016845703125,0.12109375,0.7637939453125
1747237115591540700,11.851540771484375,-0.6375885009765625,0.1199188232421875,0.7656097412109375
1747237115601571800,11.86157177734375,-0.6400299072265625,0.1190338134765625,0.7633056640625
1747237115611602700,11.871602783203125,-0.6400299072265625,0.113525390625,0.76031494140625
1747237115621633800,11.8816337890625,-0.636810302734375,0.1112213134765625,0.7563018798828125
1747237115631664600,11.89166455078125,-0.636810302734375,0.113189697265625,0.754608154296875
1747237115641695700,11.90169580078125,-0.6382293701171875,0.1141357421875,0.7542266845703125
1747237115651726800,11.911726806640624,-0.636383056640625,0.116455078125,0.7543792724609375
1747237115661757700,11.9217578125,-0.6396026611328125,0.1183319091796875,0.7542266845703125
1747237115671788800,11.931788818359376,-0.6442718505859375,0.12322998046875,0.7560577392578125
1747237115681819600,11.941819580078125,-0.6475830078125,0.1243896484375,0.7562255859375
1747237115691850800,11.951850830078126,-0.6488189697265625,0.12225341796875,0.7569580078125
1747237115701881600,11.961881591796875,-0.644805908203125,0.1188507080078125,0.757781982421875
1747237115711912700,11.97191259765625,-0.642974853515625,0.116424560546875,0.7584381103515625
1747237115721943600,11.981943603515624,-0.642303466796875,0.1163787841796875,0.7628173828125
1747237115731975000,11.991974853515625,-0.6369171142578125,0.1162261962890625,0.765380859375
1747237115742005800,12.002005859375,-0.6330718994140625,0.1189422607421875,0.769134521484375
1747237115752036900,12.012036865234375,-0.629608154296875,0.1203765869140625,0.767181396484375
1747237115762067700,12.022067626953126,-0.6314544677734375,0.11920166015625,0.7626953125
1747237115772098800,12.032098876953125,-0.6327667236328125,0.118255615234375,0.7595977783203125
1747237115782129700,12.042129638671875,-0.6322021484375,0.115570068359375,0.758331298828125
1747237115792160800,12.052160888671875,-0.6314239501953125,0.1143951416015625,0.758575439453125
1747237115802191600,12.062191650390625,-0.62945556640625,0.112213134765625,0.7631378173828125
1747237115812222700,12.07222265625,-0.6262969970703125,0.11236572265625,0.7687835693359375
1747237115822252800,12.082252685546875,-0.6241455078125,0.113922119140625,0.7753753662109375
1747237115832283600,12.09228369140625,-0.622283935546875,0.1186370849609375,0.7815399169921875
1747237115842314800,12.102314697265625,-0.622833251953125,0.1247406005859375,0.7823638916015625
1747237115852345600,12.112345703125,-0.6238555908203125,0.1245269775390625,0.783966064453125
1747237115862376700,12.122376708984374,-0.6246795654296875,0.123046875,0.782958984375
1747237115872407600,12.132407470703125,-0.6253662109375,0.12109375,0.78265380859375
1747237115882438700,12.142438720703124,-0.6236572265625,0.117279052734375,0.776885986328125
1747237115892469800,12.1524697265625,-0.62322998046875,0.1177978515625,0.77392578125
1747237115902500600,12.16250048828125,-0.6253204345703125,0.1197662353515625,0.7744598388671875
1747237115912531700,12.17253173828125,-0.625457763671875,0.1204833984375,0.7784423828125
1747237115922562800,12.182562744140625,-0.624542236328125,0.124053955078125,0.7827911376953125
1747237115932594000,12.192593994140625,-0.6230316162109375,0.1239166259765625,0.7891998291015625
1747237115942624800,12.202624755859375,-0.6248626708984375,0.1218719482421875,0.7927398681640625
1747237115952656000,12.21265576171875,-0.6280364990234375,0.119873046875,0.7923431396484375
1747237115962686700,12.222686767578125,-0.630950927734375,0.11846923828125,0.7886505126953125
1747237115972717800,12.2327177734375,-0.631103515625,0.117401123046875,0.782867431640625
1747237115982748700,12.242748779296875,-0.6304779052734375,0.1158447265625,0.776611328125
1747237115992779800,12.25277978515625,-0.62872314453125,0.1185760498046875,0.7700347900390625
1747237116002810600,12.262810546875,-0.6292877197265625,0.12200927734375,0.7631378173828125
1747237116012841700,12.272841796875,-0.6328582763671875,0.12139892578125,0.7586669921875
1747237116022872600,12.28287255859375,-0.6375579833984375,0.121124267578125,0.75604248046875
1747237116032903700,12.292903564453125,-0.6439971923828125,0.1229400634765625,0.7532501220703125
1747237116042934800,12.302934814453126,-0.6500091552734375,0.1220703125,0.7538299560546875
1747237116052965600,12.312965576171875,-0.65118408203125,0.1206207275390625,0.750030517578125
1747237116062996700,12.322996826171876,-0.6431121826171875,0.1157989501953125,0.7450714111328125
1747237116073027600,12.333027587890625,-0.6334381103515625,0.1137237548828125,0.7411956787109375
1747237116083059000,12.343058837890625,-0.6260528564453125,0.1160430908203125,0.7444915771484375
1747237116093089800,12.35308984375,-0.62384033203125,0.1163330078125,0.7503204345703125
1747237116103121000,12.363120849609375,-0.6224212646484375,0.111297607421875,0.76007080078125
1747237116113151700,12.37315185546875,-0.6283721923828125,0.106781005859375,0.7681884765625
1747237116123182800,12.383182861328125,-0.63214111328125,0.0967864990234375,0.7740020751953125
1747237116133213700,12.393213623046876,-0.629547119140625,0.087005615234375,0.7767181396484375
1747237116143244800,12.403244873046875,-0.62896728515625,0.08709716796875,0.7797088623046875
1747237116153275600,12.413275634765625,-0.634918212890625,0.0900115966796875,0.776641845703125
1747237116163306800,12.423306640625,-0.6419525146484375,0.0943756103515625,0.7631683349609375
1747237116173337600,12.433337646484375,-0.6530914306640625,0.09576416015625,0.7420501708984375
1747237116183368700,12.44336865234375,-0.662078857421875,0.0977630615234375,0.7205352783203125
1747237116193399600,12.453399658203125,-0.66766357421875,0.103668212890625,0.7054290771484375
1747237116203430700,12.4634306640625,-0.669830322265625,0.10784912109375,0.689056396484375
1747237116213461800,12.473461669921875,-0.662078857421875,0.113311767578125,0.68695068359375
1747237116223492600,12.48349267578125,-0.649322509765625,0.1244049072265625,0.70050048828125
1747237116233524000,12.49352392578125,-0.641937255859375,0.1373748779296875,0.7254791259765625
1747237116243554800,12.503554931640625,-0.6403350830078125,0.151214599609375,0.757171630859375
1747237116253586000,12.5135859375,-0.6453399658203125,0.1620635986328125,0.7882080078125
1747237116263616800,12.52361669921875,-0.6449737548828125,0.16876220703125,0.81512451171875
1747237116273647900,12.53364794921875,-0.635406494140625,0.16790771484375,0.8290863037109375
1747237116283678700,12.5436787109375,-0.6212921142578125,0.153839111328125,0.8314361572265625
1747237116293709800,12.553709716796876,-0.6056365966796875,0.1352691650390625,0.8170166015625
1747237116303740700,12.56374072265625,-0.597259521484375,0.1227569580078125,0.80316162109375
1747237116313771300,12.573771240234375,-0.595367431640625,0.11578369140625,0.7866668701171875
1747237116323802000,12.583802001953124,-0.600830078125,0.11248779296875,0.7738189697265625
1747237116333833200,12.593833251953125,-0.6124725341796875,0.1134796142578125,0.7715911865234375
1747237116343864300,12.6038642578125,-0.62152099609375,0.11968994140625,0.777984619140625
1747237116353895400,12.6138955078125,-0.626678466796875,0.1270294189453125,0.787384033203125
1747237116363926500,12.623926513671876,-0.62677001953125,0.1309051513671875,0.797943115234375
1747237116373957400,12.633957275390625,-0.6221466064453125,0.1304473876953125,0.8063507080078125
1747237116383988500,12.643988525390625,-0.6168060302734375,0.127899169921875,0.8084259033203125
1747237116394019300,12.654019287109374,-0.6110992431640625,0.12164306640625,0.8016510009765625
1747237116404050400,12.664050537109375,-0.6071014404296875,0.1143646240234375,0.7899322509765625
1747237116414081300,12.674081298828124,-0.608184814453125,0.107666015625,0.7759552001953125
1747237116424112400,12.6841123046875,-0.6095123291015625,0.103363037109375,0.7667694091796875
1747237116434143200,12.694143310546876,-0.6099700927734375,0.1028900146484375,0.764373779296875
1747237116444174300,12.70417431640625,-0.6110687255859375,0.1009063720703125,0.767242431640625
1747237116454205200,12.714205078125,-0.612457275390625,0.0985260009765625,0.7754058837890625
1747237116464236300,12.724236328125,-0.6132049560546875,0.1002349853515625,0.781005859375
1747237116474267100,12.73426708984375,-0.6135711669921875,0.10064697265625,0.7853240966796875
1747237116484298200,12.74429833984375,-0.6158447265625,0.1006622314453125,0.78509521484375
1747237116494329000,12.7543291015625,-0.6158447265625,0.0995025634765625,0.78289794921875
1747237116504360200,12.764360107421876,-0.6146392822265625,0.0985565185546875,0.7806396484375
1747237116514391300,12.774391357421875,-0.6118621826171875,0.0977325439453125,0.774566650390625
1747237116524422400,12.78442236328125,-0.6130828857421875,0.0977630615234375,0.7724151611328125
1747237116534453500,12.79445361328125,-0.61639404296875,0.09906005859375,0.7684326171875
1747237116544484400,12.804484375,-0.621673583984375,0.1017913818359375,0.7657928466796875
1747237116554515500,12.814515380859374,-0.6268463134765625,0.1047210693359375,0.765380859375
1747237116564546300,12.82454638671875,-0.6300811767578125,0.105621337890625,0.7672119140625
1747237116574577400,12.834577392578124,-0.631591796875,0.106964111328125,0.765960693359375
1747237116584608300,12.844608154296875,-0.6307220458984375,0.107330322265625,0.76470947265625
1747237116594639400,12.854639404296876,-0.63262939453125,0.109344482421875,0.7654266357421875
1747237116604670200,12.864670166015625,-0.6347808837890625,0.111419677734375,0.763702392578125
1747237116614701300,12.874701416015625,-0.63543701171875,0.1143798828125,0.7655487060546875
1747237116624732200,12.884732177734374,-0.63616943359375,0.12103271484375,0.7664031982421875
1747237116634763300,12.89476318359375,-0.6383819580078125,0.1240692138671875,0.7700653076171875
1747237116644794000,12.904794189453124,-0.6378326416015625,0.1259613037109375,0.7689361572265625
1747237116654825200,12.9148251953125,-0.6390228271484375,0.1257781982421875,0.7677459716796875
1747237116664856300,12.924856201171876,-0.6402587890625,0.125640869140625,0.76153564453125
1747237116674887400,12.934887451171875,-0.6394500732421875,0.1269989013671875,0.76080322265625
1747237116684918500,12.94491845703125,-0.6376190185546875,0.1279449462890625,0.7626190185546875
1747237116694949400,12.954949462890625,-0.634857177734375,0.1273193359375,0.762725830078125
1747237116704980500,12.96498046875,-0.6343536376953125,0.128326416015625,0.765899658203125
1747237116715011300,12.97501123046875,-0.63360595703125,0.129180908203125,0.7702178955078125
1747237116725042400,12.98504248046875,-0.6338043212890625,0.127197265625,0.772857666015625
1747237116735073300,12.9950732421875,-0.6347198486328125,0.1223602294921875,0.7720184326171875
1747237116745104400,13.0051044921875,-0.6338348388671875,0.1209716796875,0.772125244140625
1747237116755135200,13.01513525390625,-0.6328277587890625,0.120849609375,0.77325439453125
