time,seconds_elapsed,z,y,x
1747237103776374300,0.036374267578125,-0.15401859532296658,0.05263356581777334,-0.5579259975753724
1747237103786405400,0.0464052734375,0.07299158645272255,0.04131809881627559,-0.5366631370551884
1747237103796436200,0.056436279296875,0.2602209619820118,0.012538432925194501,-0.4889931849941611
1747237103806467300,0.06646728515625,0.3534749997407198,-0.0340218043282628,-0.40898806651756164
1747237103816497400,0.076497314453125,0.28888299284279345,-0.08087064926475286,-0.3937621480740607
1747237103826528300,0.0865283203125,0.15590250937342642,-0.09711568162292242,-0.3630447921186685
1747237103836559400,0.096559326171875,0.020823007798194883,-0.08069953048154711,-0.30264585299640895
1747237103846590200,0.106590087890625,-0.010142039307951926,-0.10797449089810252,-0.19798165569007395
1747237103856621300,0.116621337890625,0.022107786911725998,-0.1409159526437521,-0.1948778444558382
1747237103866652200,0.126652099609375,0.2603022105246782,-0.17377485067248344,-0.3259355431690812
1747237103876683300,0.136683349609375,0.5917647004216909,-0.14131927274763584,-0.3996829164251685
1747237103886714000,0.146714111328125,0.8006424286574125,-0.1723300586916506,-0.4039966879710555
1747237103896745200,0.1567451171875,0.8340297344744205,-0.2406535072028637,-0.3630579438611865
1747237103906775300,0.166775390625,0.744273475703597,-0.29472207425981756,-0.36108503635302186
1747237103916806100,0.17680615234375,0.6353589274764061,-0.2517107616595924,-0.4239432051956653
1747237103926837200,0.186837158203125,0.6206266377687454,-0.1876977236934006,-0.5323837061703205
1747237103936868000,0.1968681640625,0.6911486192375421,-0.10596855790317058,-0.5464385350078343
1747237103946899500,0.2068994140625,0.6735866590619087,-0.03281374371275306,-0.5034124632298946
1747237103956930300,0.216930419921875,0.4713607899308204,-0.043154958854615684,-0.4295433632902801
1747237103966961400,0.22696142578125,0.07443418647646903,-0.054123512114584445,-0.30864421662837266
1747237103976992300,0.2369921875,-0.4623398636072874,-0.00020312135666608808,-0.24130057293474672
1747237103987023400,0.2470234375,-0.9297335034728049,0.11227993300706147,-0.28405864142626525
1747237103997053400,0.257053466796875,-1.06417236905694,0.3271215380832553,-0.39032048318758605
1747237104007084300,0.267084228515625,-0.9326414998739957,0.5982321428701282,-0.664720777169615
1747237104017115400,0.277115478515625,-0.6455190869629382,0.8210229533851147,-0.8067847308047116
1747237104027146200,0.287146240234375,-0.34550212116539475,0.9865095759227871,-1.095288222810626
1747237104037177300,0.29717724609375,-0.03866553848087787,0.8506110130496323,-1.3920121384121478
1747237104047208200,0.307208251953125,0.23626433233320712,0.40998438407853244,-1.3567965942546725
1747237104057239300,0.3172392578125,0.29558979700505733,-0.1251601651072502,-1.0737179037764668
1747237104067270400,0.3272705078125,0.27739070796966553,-0.5468488693743944,-0.9499681899890303
1747237104077301200,0.33730126953125,0.4230214141756296,-0.6744919373385608,-0.9909669937230646
1747237104087331300,0.347331298828125,0.6721171710312366,-0.3911107567824423,-1.2055498017325996
1747237104097362200,0.357362060546875,0.881459594169259,0.06524506397917866,-1.483516409894079
1747237104107393300,0.367393310546875,0.8380266951560974,0.5203045613199472,-1.512245806902647
1747237104117424000,0.377424072265625,0.4663730646461248,0.8224192300491034,-1.3146888063654303
1747237104127455200,0.387455322265625,-0.13805121086239813,0.8591782042562961,-1.124970025173202
1747237104137486300,0.397486328125,-0.9391390451997518,0.7622495696380734,-1.020022627011314
1747237104147517200,0.40751708984375,-1.5214461814463138,0.6026119653895496,-1.0705064674492926
1747237104157548500,0.417548583984375,-1.491684080389142,0.32683731431439517,-1.4050563289023934
1747237104167579400,0.427579345703125,-1.2181079622715711,0.051886546842753886,-1.8212920284606515
1747237104177609200,0.437609130859375,-0.998884196588397,-0.03318929902687669,-2.0103522726789116
1747237104187640300,0.447640380859375,-1.017521092519164,0.1277909520022571,-1.7315467294752598
1747237104197671400,0.45767138671875,-1.0757003097653388,0.34614670267924663,-1.174289863333106
1747237104207702300,0.467702392578125,-0.9449117833822965,0.5581000389680266,-0.766013890607655
1747237104217733400,0.4777333984375,-0.5708516762524843,0.821888484173268,-0.7207867285888642
1747237104227764500,0.487764404296875,-0.19157354221343992,1.1793277113698422,-0.7132991493124514
1747237104237795300,0.49779541015625,0.07786766805648804,1.4584702314428983,-0.5881321891382336
1747237104247826400,0.507826416015625,0.4600917924195528,1.535695217681676,-0.5484910836234689
1747237104257857300,0.517857177734375,0.732768331348896,1.0986470317192376,-0.6103978700254112
1747237104267887400,0.527887451171875,0.7826157735794782,0.3669308397717774,-0.7265876699525863
1747237104277918500,0.53791845703125,0.9667430914402008,0.07809519320204854,-0.6971336849965155
1747237104287949300,0.54794921875,1.1983230653494596,0.3031976416602731,-0.3477321452397853
1747237104297980400,0.55798046875,1.3828145403474568,0.5371006516896188,0.27020382867287845
1747237104308011300,0.56801123046875,1.5006348640859126,0.7095404543660581,1.0039762590304016
1747237104318042400,0.57804248046875,1.4433862056881188,0.8210669386573135,1.5824693899467586
1747237104328073200,0.5880732421875,1.2575234423369168,0.8055269858285784,1.8122176183842122
1747237104338104300,0.598104248046875,0.9193892195910215,1.224848084181547,1.1335030218493192
1747237104348135200,0.60813525390625,0.49474049647450447,1.8409582674391567,0.17472407768871634
1747237104358166300,0.618166259765625,0.014648118555545805,2.0062077202200888,-0.02198931619778741
1747237104368196400,0.6281962890625,-0.4758937571853399,1.461201409972459,0.41922246028408405
1747237104378227200,0.638227294921875,-0.6795891143471002,0.8279777409590781,0.8351773701395839
1747237104388258300,0.64825830078125,-0.3418728247523308,0.7653667518105357,0.9826762083049863
1747237104398289200,0.6582890625,-0.5465367346853017,0.2328799505919218,0.9193196614861487
1747237104408320300,0.6683203125,-1.5050024116456509,-0.8262640689089894,0.23169545351509002
1747237104418351000,0.67835107421875,-0.2529769822031259,0.16544555987492202,-0.19465342458281665
1747237104428382200,0.68838232421875,0.48597091456353664,0.37315022574327883,-0.6241503549154848
1747237104438413000,0.6984130859375,1.0770394494146107,-0.20804040062874554,-0.7704772997573017
1747237104448444200,0.708444091796875,1.212647358778119,-0.3016589608509093,-0.3527121986746788
1747237104458475000,0.71847509765625,0.8545844467252492,-0.058082917264848946,0.4408519256269559
1747237104468505000,0.728505126953125,0.16451368585228918,0.3749531835120171,1.0498439839750529
1747237104478536200,0.7385361328125,-0.6904068609595299,0.9711544050764291,0.9485361113592982
1747237104488567000,0.748567138671875,-1.5048831691801547,1.4061676511451602,0.6369386709485203
1747237104498598400,0.758598388671875,-2.1103630912214517,1.4058847425505518,0.723421314876154
1747237104508629200,0.768629150390625,-2.3093296662956475,0.9101688251726329,1.0715559034369886
1747237104518660400,0.778660400390625,-2.1484411852031946,0.21289573170542717,0.9928637672550976
1747237104528691200,0.788691162109375,-1.7020716286659239,0.025549378732964395,0.21120507520474494
1747237104538722300,0.798722412109375,-1.3122130639016627,0.07569858038909733,-0.8845421434197575
1747237104548753200,0.808753173828125,-1.2498743888884782,-0.18273217370789496,-1.4460516255050897
1747237104558784300,0.8187841796875,-1.8015818042099474,-0.9914885333791374,-1.4301137593999504
1747237104568814300,0.828814453125,-2.3538532831549643,-1.605883875542879,-1.303352004314959
1747237104578845200,0.83884521484375,-2.766031231755018,-1.1618556214347482,-1.0650246750373393
1747237104588876300,0.848876220703125,-3.086878219613433,-0.6534272297389805,-0.8151381331302225
1747237104598907100,0.8589072265625,-3.1870722857683895,0.05278524924814701,-0.7989396433275192
1747237104608938200,0.868938232421875,-2.9892180558502672,-0.34329861977174875,-1.2685719289653004
1747237104618969000,0.878968994140625,-2.312901679563522,-1.791414630460739,-1.864301002973318
1747237104629000200,0.889000244140625,-1.1412509325623512,-1.2051662092424928,-1.7975635084792971
1747237104639031300,0.89903125,0.14455693949460982,-0.4877700729399919,-2.132280762388557
1747237104649062100,0.909062255859375,1.0144172812849284,-0.2956213611871004,-2.435261108036339
1747237104659092200,0.91909228515625,2.657557413032651,-0.4320359107583761,-2.3321230973839757
1747237104669123000,0.929123046875,4.229940000990033,-0.23667028278559446,-1.7781179265141487
1747237104679154200,0.939154296875,5.035387199580669,0.4851572600930929,-0.6233142694175243
1747237104689185000,0.94918505859375,5.616376238965988,2.64121155064851,1.4453829324632883
1747237104699216100,0.959216064453125,5.8918736805349585,3.4033813330486415,3.1988422185391188
1747237104709247200,0.969247314453125,4.932425422278047,1.5584166064471006,3.663662208524346
1747237104719278300,0.9792783203125,1.5019628978192805,0.6955109061002731,2.3751132210656998
1747237104729309400,0.989309326171875,-1.6747919920742511,0.48049335993528364,1.0928931443676353
1747237104739340300,0.99934033203125,-2.40768541110754,0.010942542035877703,0.5471243253149092
1747237104749371400,1.009371337890625,-0.8145458663254975,-0.05049041630923748,0.4598837026268244
1747237104759401200,1.019401123046875,1.9936714792519807,0.46884413093477484,0.8154227952904999
1747237104769432300,1.029432373046875,3.3633892221391197,0.972792892998457,1.7806234795942901
1747237104779463200,1.039463134765625,2.6047259865552186,1.1961708557516335,2.7480831948712465
1747237104789494300,1.049494384765625,2.283742805096507,1.287501231971383,2.948845128929615
1747237104799525400,1.059525390625,2.177691245085001,0.7576236634030937,2.414835575123131
1747237104809556200,1.06955615234375,2.5620640719145533,0.4137890370585024,1.5002356356352566
1747237104819587300,1.07958740234375,3.4306238525003194,0.46470177043303845,0.8730532195474952
1747237104829618200,1.0896181640625,3.714082482206821,0.8161223218619823,1.5011450055651365
1747237104839649300,1.099649169921875,0.016217559829354286,1.0595093456819653,3.458495025244355
1747237104849680100,1.10968017578125,0.5264280126363039,0.810596105786413,2.9025656083136795
1747237104859711200,1.119711181640625,0.3442535824090242,0.6774941878944635,0.5506534492891282
1747237104869741300,1.1297412109375,-0.29077509019970893,0.6295736220732331,-0.9082124304078519
1747237104879772200,1.139772216796875,-0.5789063878923654,0.31334881412275134,-1.7001486977793274
1747237104889803300,1.14980322265625,-1.4717472077757119,-0.17334610386639832,-2.151256973276287
1747237104899834000,1.159834228515625,-2.0434522859871387,-0.16924765557162463,-2.0937758212968705
1747237104909865200,1.169865234375,-2.384809562432766,0.524244311921671,-1.401981305371225
1747237104919896000,1.17989599609375,-2.806313557782769,0.7516482422553002,-0.6304132147025316
1747237104929927200,1.18992724609375,-2.937856701925397,0.4837194458423182,-0.3180047501698136
1747237104939958300,1.199958251953125,-2.4317764807909725,0.3796174489960074,-0.201544426205568
1747237104949989400,1.2099892578125,-1.5770792213410139,0.40344888136256485,-0.09341938438825309
1747237104960020200,1.220020263671875,-0.9968179117083549,0.41006015272848306,-0.04835771512947976
1747237104970050300,1.23005029296875,-1.3007517586886883,0.19498199895005672,-0.2273901210039854
1747237104980081400,1.240081298828125,-2.1696149061352012,0.02210950394477695,-0.6898897782828658
1747237104990112300,1.2501123046875,-2.2546792076975106,0.4612955787187442,1.673467757733166
1747237105000143400,1.260143310546875,-2.6486054602921008,-0.1234339258365333,2.9205326421588658
1747237105010174200,1.27017431640625,-2.934062570339441,0.028319610631279645,1.556624316202849
1747237105020205300,1.280205322265625,-2.5666911471933127,0.4914027303539216,-0.4990203657507896
1747237105030236200,1.290236083984375,-1.8709674751251935,0.14371340134255586,-0.6084121761009097
1747237105040267300,1.300267333984375,-1.3897551532655954,0.3041623950392008,-0.30947686806023117
1747237105050298000,1.310298095703125,-1.6007278079539538,0.5742701794590801,-0.2655624691404402
1747237105060329200,1.3203291015625,-2.6157389634788033,-0.11549677616171539,-0.42876609530746934
1747237105070359300,1.330359375,-3.228584445852041,-0.3161709588713944,-1.497755363126844
1747237105080390100,1.34039013671875,-3.2969279142379757,-0.09530176406875251,-0.8514008482530713
1747237105090421200,1.350421142578125,-3.0802602627784013,0.5397220862343907,0.4912970780223608
1747237105100452000,1.3604521484375,-0.7898422177016735,1.4467831546500325,1.142588318645954
1747237105110483200,1.370483154296875,3.6819442996680736,1.5414695632994173,0.7870388507187366
1747237105120514000,1.38051416015625,3.716054074540734,-0.1319102238893509,0.815265120510757
1747237105130545200,1.390545166015625,2.081366713839769,-0.540566428104043,1.390294666969776
1747237105140576000,1.400575927734375,2.164533657348156,0.15329028104841708,0.20587065537422894
1747237105150607000,1.410607177734375,1.1242863537579775,-0.07837824792712926,-0.3345218774676323
1747237105160638200,1.42063818359375,0.22247429191172122,0.06730126585662365,0.46429333576261994
1747237105170669300,1.43066943359375,0.10461363616287708,0.6097533615767955,0.43252223297059533
1747237105180699100,1.44069921875,-0.3779705585718155,0.9138444449454546,1.1343287320837379
1747237105190730200,1.450730224609375,-0.7054167985647917,0.7291498485907911,2.236444462826848
1747237105200761300,1.46076123046875,0.19161796587705612,0.12768617645353078,1.623301166550815
1747237105210792200,1.470792236328125,0.6768097127616405,-0.3265463685438037,1.9176362873196602
1747237105220823300,1.4808232421875,1.0251707304894924,-0.36661505182087417,1.8082418466210364
1747237105230854400,1.4908544921875,1.1541449009269475,-0.2137839127168059,1.7003744693592189
1747237105240885200,1.50088525390625,1.3137713992595672,-0.1919555272683501,1.3844950407803058
1747237105250916400,1.510916259765625,1.401686414077878,0.08254910387098789,1.6004592201456427
1747237105260947200,1.520947265625,0.3008493249684572,-0.47485652309209103,-0.3259533710867166
1747237105270978300,1.530978271484375,-1.3412193781554698,-0.012120061382651329,-0.5646791250973939
1747237105281008000,1.541008056640625,-1.516188407048583,-0.33898265626877544,0.055142626029253
1747237105291039200,1.551039306640625,-0.4173147269666195,-0.7199830840557814,0.2814005281329155
1747237105301070600,1.561070556640625,0.06295651465058326,-0.3596349836751818,0.9116387515947222
1747237105311101700,1.571101806640625,-0.04672667986154556,-0.16356149969398975,1.079055173151195
1747237105321132500,1.581132568359375,-0.39526948389708993,-0.08114040611684321,0.7137734157606959
1747237105331163600,1.59116357421875,-0.4529238004863262,-0.026775486461818217,0.5619847714468836
1747237105341194800,1.60119482421875,0.12154957339465618,-0.5126774274423718,0.32581191678941246
1747237105351225600,1.6112255859375,0.7687579286187887,-0.7259606971606611,-0.6532695549592376
1747237105361256700,1.621256591796875,0.8362813127934933,-0.8543626206681132,-1.2307327583059668
1747237105371287600,1.63128759765625,0.804423700761795,-1.0467115311682225,-1.3731579464688897
1747237105381318700,1.641318603515625,0.9984002124637364,-0.9176578657537698,-0.8980074088662863
1747237105391348500,1.651348388671875,1.2272142287909984,-0.6528261951059102,0.03878156607598066
1747237105401379600,1.661379638671875,0.8408949440687894,-0.44252369476407766,0.37824440707713364
1747237105411410700,1.67141064453125,0.5109323373407125,-0.0512236990198493,0.21398381920307874
1747237105421441500,1.681441650390625,0.7393477097392082,0.0031909049957990644,0.6442302161961794
1747237105431472600,1.69147265625,1.2603145343601703,-0.36429976061582564,1.3710583438411355
1747237105441503500,1.70150341796875,1.2133546302646399,0.08474106095731258,1.5334499229729175
1747237105451534600,1.71153466796875,-0.14962006810307502,1.2352099037200213,0.20741993064284323
1747237105461565400,1.7215654296875,-1.8684253894269465,0.4021823320254683,-0.3399018169403076
1747237105471596800,1.7315966796875,-2.0639111366480587,-0.450350442866981,-0.002159223860502243
1747237105481627600,1.741627685546875,-1.8557307430267334,-0.3075251494705677,-0.9100093968272208
1747237105491657500,1.751657470703125,-1.5764087747335433,0.6530664336025714,-1.4374357728511094
1747237105501688800,1.761688720703125,-0.8210264605164528,1.1996546062141655,-0.811008924371004
1747237105511719700,1.7717197265625,-0.496927192863822,0.6199488846376537,2.827737454083562
1747237105521750800,1.781750732421875,-0.34412440307140346,-0.08599661397635937,3.635136079002917
1747237105531781600,1.79178173828125,-0.07076221996545791,0.12559125000089405,2.1363751920953393
1747237105541812700,1.801812744140625,-0.8375538169473409,0.34629327154308553,1.2564578589320181
1747237105551843600,1.811843505859375,-2.5431419293016195,0.29498510911017656,0.21916297540664673
1747237105561874700,1.821874755859375,-3.25486455001235,-0.10982844820171594,-1.3533242419689893
1747237105571905500,1.831905517578125,-2.3674305576086043,-0.4305710989028215,-0.9221814806580543
1747237105581936600,1.8419365234375,-0.9570552256405352,-0.3080330989927053,-0.4669637240156531
1747237105591967500,1.851967529296875,0.20036592047810553,-0.3506985207647085,-0.26384061378389595
1747237105601997600,1.86199755859375,0.8274433418214321,-0.3278162423491478,0.4157534689992666
1747237105612028700,1.872028564453125,0.8938836069345474,-0.33461510870903727,0.21023849519491195
1747237105622059500,1.8820595703125,0.4102022646129131,-0.3068380439892411,-0.368150298564136
1747237105632090600,1.892090576171875,-0.43506431866884226,-0.3198904177859425,-0.5181295553684234
1747237105642121500,1.90212158203125,-0.8827274221479893,0.022725626549124717,-0.5104962840110063
1747237105652152600,1.912152587890625,-0.773688370758295,0.18641513653695582,-0.6198731890529394
1747237105662183400,1.922183349609375,-0.23367840749323368,0.011260814204812048,-0.6870142959117889
1747237105672214500,1.932214599609375,0.34132395869791504,-0.48041824887245893,-0.5938455983489751
1747237105682245400,1.942245361328125,1.0041834720402956,-0.6882309782251715,-0.3101251028358936
1747237105692276700,1.95227685546875,1.4208049560457467,-0.2984767506182194,0.18734832573384044
1747237105702306600,1.962306640625,0.9301695568025111,0.5899094279438257,0.12469956185817718
1747237105712337400,1.97233740234375,0.35138065780997274,0.8604328804925083,0.14604483996480702
1747237105722368800,1.98236865234375,0.06910685397386551,0.07752338466346263,0.8659750247895717
1747237105732399600,1.992399658203125,-0.21980478044152257,-0.23798428799360988,1.2949497944116592
1747237105742430700,2.0024306640625,-0.5662327842801809,0.1400397543311119,1.0299202631041406
1747237105752461600,2.012461669921875,-0.3196691762506962,0.4473156052157283,0.5267249497562646
1747237105762492700,2.02249267578125,0.2951104890555143,0.5659983910024166,0.18044336865097282
1747237105772523500,2.0325234375,1.4482161100625992,0.7247124506652355,0.007756751606613397
1747237105782554600,2.0425546875,2.513106272000074,0.49014469311684367,0.49071986265629525
1747237105792585700,2.052585693359375,2.939275921073556,0.46571255491077895,0.22976561796367168
1747237105802615600,2.062615478515625,2.2405858004152774,0.6956558675289154,-0.31099472527727484
1747237105812646700,2.072646728515625,1.1936276010096072,0.6147627141714096,-0.21674868080653248
1747237105822677500,2.082677490234375,0.14952537555694578,0.43833559542447326,0.24094927527904508
1747237105832708600,2.09270849609375,-0.5870698206037283,0.9724122231177985,-0.2881404308471828
1747237105842739500,2.102739501953125,-1.320838268905878,2.006589413014054,-0.7631191920794547
1747237105852770600,2.1127705078125,-1.7210744352996348,2.972349923157692,-0.7391063752640038
1747237105862801700,2.1228017578125,-1.5180594616174696,3.7558044856488704,-0.4034161116041243
1747237105872832500,2.13283251953125,-0.8298240994781255,3.826835585683584,-0.1640095357224345
1747237105882863600,2.142863525390625,-0.13855565325319766,3.214041541236639,-0.08452697981521487
1747237105892894500,2.15289453125,0.08931845187544822,2.404787789969891,-0.2924788253776729
1747237105902925600,2.162925537109375,0.05511398445665836,1.7130642934538423,-1.1581205265596508
1747237105912955600,2.17295556640625,-0.23171441394388675,0.9652455463588238,-1.5428852753162383
1747237105922986500,2.182986572265625,-0.5390723901540041,0.33756891701333225,-1.5906716933637857
1747237105933017600,2.193017578125,-0.6405617568165064,-0.03296856894828379,-1.493071443094313
1747237105943048700,2.203048583984375,-0.4459685745209455,0.13737082738280296,-1.24234545468837
1747237105953079800,2.213079833984375,-0.3166945443540811,0.6820128343626857,-0.7121724103048443
1747237105963110700,2.223110595703125,-0.2572621121764183,1.1922764786615967,-0.4019707351014018
1747237105973141800,2.233141845703125,0.02510053898692131,1.6301654993623493,-0.4466854906186461
1747237105983172600,2.243172607421875,0.46011517329514023,1.9909576902486383,-0.4659434410572052
1747237105993203700,2.25320361328125,1.0220447074234484,2.0683990957170724,-0.47905689739137886
1747237106003234600,2.263234619140625,1.6396154647529124,1.9481430692642927,-0.4921124860584736
1747237106013264600,2.2732646484375,2.212317152786255,1.4686314138427377,-0.614905629773438
1747237106023295700,2.283295654296875,2.4501807370096444,0.5531393478207289,-0.6264236336097121
1747237106033326600,2.29332666015625,2.173479180347919,-0.18433887825217096,-0.1083612982586026
1747237106043357700,2.303357666015625,0.8960212034851313,-0.02715348946135491,0.8326733514294028
1747237106053388500,2.313388427734375,-0.7056032610476016,0.7319481010071933,1.907533703239262
1747237106063419600,2.323419677734375,-1.7419634940713642,1.6526479648053645,2.8011285563603043
1747237106073450500,2.333450439453125,-1.39603174931705,2.2668946922786533,3.6483091565698382
1747237106083481600,2.343481689453125,0.08376490940153598,2.028075707026571,4.244242959369719
1747237106093512400,2.353512451171875,1.436900935322046,1.1244602490201592,3.3178982215523716
1747237106103543600,2.36354345703125,2.3452584732890127,0.39603020260389893,1.4750024101793766
1747237106113573600,2.37357373046875,2.673495571398735,-0.47946419955063607,0.07945961342304944
1747237106123604500,2.3836044921875,2.7723282860726117,-1.251037733579427,-0.981284242489934
1747237106133635600,2.393635498046875,3.1205238841056824,-1.4471810679264365,-1.7840806343108415
1747237106143666400,2.40366650390625,3.410615083694458,-0.8503854606654494,-2.015694218228757
1747237106153697500,2.413697509765625,3.4152737231552597,-0.06014452596977353,-1.3763459288552402
1747237106163728600,2.423728759765625,3.1653730796575545,0.5350432807683945,-0.5969651916742325
1747237106173759700,2.433759765625,2.6918799538731575,1.2282435718387366,0.05375818593353033
1747237106183790600,2.44379052734375,2.283628823328018,1.7745720706008374,0.8321060729354619
1747237106193821700,2.45382177734375,1.8907611398756503,2.1266529856346548,1.4510013568669557
1747237106203852500,2.4638525390625,1.3536276088297365,2.294949551026523,1.5420236900508404
1747237106213883600,2.473883544921875,0.46389995253086086,2.1550981588743627,0.7870403120234608
1747237106223913700,2.483913818359375,-2.9389702161252496,0.33412761745303865,-4.59918861618489
1747237106233944600,2.493944580078125,-7.957572869643569,-2.5728844488754867,-7.770673748981952
1747237106243975700,2.5039755859375,-12.366916667103766,-4.215202450585365,-9.071571053621172
1747237106254006500,2.514006591796875,-15.875906784832477,-5.45732432565093,-8.91834506998062
1747237106264037600,2.52403759765625,-14.112081587564944,-6.2616942503988735,-6.542599103969335
1747237106274068500,2.534068359375,-5.667706028708816,-3.833403565897047,-3.6116277776435015
1747237106284099600,2.544099609375,-1.5543208615660666,-0.9105797440610826,-1.5764505680486558
1747237106294130700,2.554130615234375,-5.135838455367088,-2.0035417158812283,-0.1384080614760518
1747237106304161800,2.564161865234375,-4.933241414836049,-1.961409231942147,0.5514657155200838
1747237106314193000,2.57419287109375,-3.334380569797754,-1.5784012637250124,0.2824883233696222
1747237106324222700,2.58422265625,-0.9139268625319004,-1.9305118432447312,-0.3893541223734617
1747237106334253800,2.59425390625,0.3440571830540895,-2.7901187943071126,-0.8602578161865472
1747237106344284700,2.60428466796875,0.09842939456999301,-2.9915245792269705,-0.33113749572634693
1747237106354315800,2.614315673828125,1.2939391560643911,-1.9256117962434887,0.6714157447636127
1747237106364346600,2.6243466796875,0.9997352604597807,-0.45859439346864816,2.796832028210163
1747237106374377700,2.634377685546875,0.9127683401465415,0.6950655004203319,4.520636180734634
1747237106384408800,2.644408935546875,2.3747031789600848,1.347509418210387,3.8817864885330198
1747237106394439700,2.654439697265625,3.6496716770946978,1.0503539793238044,2.459767480522394
1747237106404470800,2.664470703125,4.069395218768715,0.516009786735475,0.7302297527819871
1747237106414501600,2.674501708984375,2.5532500663399693,0.11556121970005333,-1.1171855818420648
1747237106424531700,2.68453173828125,-0.4523626594722271,-0.522730473292619,-2.279940490204096
1747237106434562600,2.6945625,-0.37967794701158997,0.0967611690968275,-1.5486995145529507
1747237106444593700,2.70459375,0.58316872151196,0.7864277330830692,0.26647008550465107
1747237106454624800,2.714624755859375,1.8954583577811717,1.588706384640187,1.6523387527257203
1747237106464655600,2.724655517578125,0.4384896169424057,1.2202070534426719,1.6193594431877136
1747237106474686700,2.734686767578125,0.01980360162258148,0.39377471529468894,0.21220833396315572
1747237106484717600,2.744717529296875,-0.09234452169835566,-0.8273010107412934,-1.4640338569194078
1747237106494748700,2.754748779296875,-0.9770680860996246,-1.8157463770322502,-2.1424247013926503
1747237106504779500,2.764779541015625,-2.3932231705129143,-1.6703002336129544,-2.0715005688637493
1747237106514811000,2.774810791015625,-1.2521259672075509,-0.7740528201565146,-1.4222072240591048
1747237106524840700,2.7848408203125,-0.06591068828105927,-0.13154056859305127,-0.5335410595118999
1747237106534871600,2.79487158203125,0.5148994874060153,0.23939064766019583,-0.3224965086311102
1747237106544903000,2.80490283203125,0.5596458071053028,0.44711102255433793,-0.3397188615888357
1747237106554933800,2.814933837890625,0.35018823315501213,0.1916456210689619,-0.8733288946837187
1747237106564964900,2.82496484375,-3.0512627163529396,-6.86051822168231,-1.929175333943963
1747237106574995700,2.83499560546875,-0.8967804974198341,-5.168856343349814,-4.495568959495425
1747237106585026800,2.84502685546875,-0.5580179136425256,-0.46743280283212657,-0.85644790250957
1747237106595057700,2.8550576171875,-1.76772746540308,-1.381100137645006,1.8303572323173283
1747237106605088800,2.8650888671875,0.8163041081696748,0.9041424775552004,3.129839993983507
1747237106615119600,2.87511962890625,-0.386623236104846,1.2240160172715782,2.9319284809201953
1747237106625149700,2.885149658203125,-0.6862929958999157,0.07624372011646628,0.9000473902612924
1747237106635180800,2.895180908203125,-1.6605226437032221,-1.869253803075105,-1.8245318871647118
1747237106645211600,2.905211669921875,-1.8439438591212034,-3.7561493535637855,-4.629776938933134
1747237106655242800,2.91524267578125,-1.2881564810097217,-5.651502497404813,-7.34957833443284
1747237106665273600,2.925273681640625,-0.3860048119455576,-7.048357253542542,-8.745226052868366
1747237106675304700,2.9353046875,0.691038729122281,-6.547913576990366,-8.764413568419217
1747237106685335600,2.94533544921875,0.9800298585146665,-4.050949169234931,-9.444711707818508
1747237106695366700,2.95536669921875,0.9782722011923789,-1.3058413369126618,-9.167605077487229
1747237106705397500,2.9653974609375,0.15871172157526015,1.24798755222857,-7.94306094468832
1747237106715428600,2.9754287109375,-1.4232938502520323,3.2509406545668837,-6.939340413984656
1747237106725459500,2.98545947265625,-1.459339561623335,5.855538630828261,-4.347204736672341
1747237106735489500,2.995489501953125,-3.610742519241571,8.44560656195581,-0.9661895492106676
1747237106745520600,3.005520751953125,-3.6699043177843094,8.999391368073224,1.7241922750592231
1747237106755551500,3.015551513671875,-1.8659931938439607,12.157670690077543,5.415541531932353
1747237106765582800,3.025582763671875,0.984152491402626,13.391724994021653,2.7966090331092475
1747237106775613700,3.03561376953125,3.056996291568875,12.269305018657445,0.5308598576039075
1747237106785644800,3.045644775390625,3.256305980992317,8.842711444586515,1.9398259072959423
1747237106795675600,3.055675537109375,2.5390479379862545,4.8652562583684915,4.663181195884943
1747237106805706800,3.065706787109375,1.7896902908861636,1.4912038956567644,6.477609037664532
1747237106815737600,3.075737548828125,0.13823533525764942,0.6048826868005096,6.461476233509183
1747237106825768700,3.085768798828125,-1.0976654733359814,0.9041501494050025,5.351935613462328
1747237106835798800,3.095798828125,-1.2643068188667297,1.5668287532225251,2.2103309474050996
1747237106845829600,3.10582958984375,-1.2429565723240374,0.9737050394073128,0.014261749586462974
1747237106855860700,3.11586083984375,-0.9459504787802696,-0.02601575413569808,-0.09374094449281692
1747237106865891600,3.1258916015625,0.695481095483899,0.1760530247375369,0.6427379318118095
1747237106875922700,3.135922607421875,0.3260556624174118,-1.1699014191158115,3.1326532978385684
1747237106885953800,3.145953857421875,-0.5587982503652572,-1.1157654859110713,0.1771229920566082
1747237106895984600,3.155984619140625,-1.1131319225370884,0.31189415833503004,-0.509459926700592
1747237106906015700,3.166015625,-1.4088824630618095,1.2023574354320763,2.0994284402310845
1747237106916046600,3.176046630859375,-0.27541911563575266,0.6490713726170361,2.5112767184853553
1747237106926077700,3.18607763671875,0.49947103212773797,-0.6724225837185979,-0.219582077601552
1747237106936107500,3.196107421875,-0.2524479898929596,0.5283129496000707,-1.5588824703931807
1747237106946138600,3.206138671875,-0.9709662620931864,-0.07260667878836392,-0.37868601336479185
1747237106956169700,3.216169677734375,-0.21724983526170252,-0.5883946394667029,0.11886194174587726
1747237106966200600,3.22620068359375,0.24257950682938098,0.14579510298743842,0.2236778224825859
1747237106976231700,3.236231689453125,0.6137000533759593,1.0777230477645992,-0.021404607078433037
1747237106986262800,3.2462626953125,0.5431985301733017,1.621969625686109,-0.4714741871774196
1747237106996294000,3.2562939453125,0.8200643374860286,2.628115629971027,-1.188674947038293
1747237107006324700,3.26632470703125,-0.6929553763985633,2.4765052648335693,-0.814696088451147
1747237107016355800,3.27635595703125,-1.9734762479633092,1.2904413770765066,0.07438917829096317
1747237107026386700,3.28638671875,-1.7177999436736107,0.13966631790883838,1.3501111251413822
1747237107036416800,3.296416748046875,-1.385858145827055,-0.4794705196935683,1.1202093135774136
1747237107046447900,3.30644775390625,-0.65597852165699,-1.1305592234823851,1.132441018640995
1747237107056478700,3.316478759765625,0.4135094894647598,-1.778017534879595,0.9622831894218921
1747237107066509800,3.326509765625,1.3652204314678906,-1.501694163880497,0.8013619751036166
1747237107076540700,3.336540771484375,1.5403665704935787,-0.5861169768583029,0.6836883663594723
1747237107086571800,3.34657177734375,1.3424398598611353,0.1656309263791889,0.013935586372017859
1747237107096602600,3.3566025390625,1.1335603780597447,0.3472103133227676,-0.6078583416104316
1747237107106633700,3.3666337890625,1.3899071289569138,0.1463112358160317,-0.6560504178494214
1747237107116664600,3.37666455078125,1.7338281184107065,-0.23009740720130503,-0.5560539200931787
1747237107126695700,3.38669580078125,1.1882657817155122,-0.7880128833826631,-0.5874515133976936
1747237107136725800,3.396725830078125,-0.6133312200635671,-1.0324974201157688,-1.0107780479997397
1747237107146756600,3.406756591796875,-2.3998458035230636,-1.0404214180480689,-1.5142249980211258
1747237107156787700,3.41678759765625,-2.623070037019253,-0.8101965120095759,-1.3511293622732161
1747237107166818600,3.426818603515625,-1.7339958761930465,-0.9920349882807582,-0.5800584805369376
1747237107176849700,3.436849609375,-0.1893266400694847,-0.9163017749696969,0.05886018524765968
1747237107186880500,3.446880615234375,1.14416243609488,-0.07111212938167154,-0.012004326048493384
1747237107196911600,3.45691162109375,1.7003958044081926,0.20652272607479244,-0.6159276662975549
1747237107206942700,3.466942626953125,1.4141086732774972,0.23158267732299864,-1.0695388645261525
1747237107216973800,3.476973876953125,0.004625321713089943,-0.5088446078138426,-1.3265753512531517
1747237107227004700,3.487004638671875,-1.886106592068076,-2.0321751051694155,-0.7593728451579809
1747237107237034800,3.49703466796875,-2.572593064713478,-2.4785604437977073,0.5009609784245491
1747237107247065900,3.50706591796875,-0.8534113112926482,-1.3554028018087148,1.0275088180482388
1747237107257096700,3.5170966796875,-0.4918360072046518,-1.4243946511007846,0.8263637298911809
1747237107267127800,3.5271279296875,-0.344863823261857,-2.0502020525082947,0.6474351497173308
1747237107277158700,3.53715869140625,-0.26133798331320285,-0.6859083074312656,0.7459726808369159
1747237107287189800,3.547189697265625,-0.09969488446116447,-1.0935009010024368,0.7779752542972564
1747237107297220600,3.557220703125,0.3800824361592531,-1.1111859030358493,-0.022715689677000044
1747237107307251200,3.567251220703125,1.2357581852525472,-0.3256771114286035,0.3907604820400476
1747237107317282300,3.5772822265625,1.5955775855839252,-0.9153256234139203,0.21620412560105323
1747237107327313200,3.587313232421875,2.062168676894903,-1.9936596426837145,-0.21308453227579593
1747237107337343200,3.59734326171875,1.9708236876279115,-2.531260060589015,-0.2221785238355398
1747237107347374000,3.6073740234375,0.21401450660228727,-1.479660172857344,0.4032008614182472
1747237107357405200,3.6174052734375,-1.506447349756956,-0.20084004079587756,1.0040829342752695
1747237107367436300,3.627436279296875,-1.6873837626218795,0.5157667717598379,0.6816454623550177
1747237107377467100,3.637467041015625,-1.3615478804349899,0.6155570794194937,0.15434242044985294
1747237107387498200,3.647498291015625,-0.6867851633310318,0.155757840205729,-0.30829847193062304
1747237107397529000,3.657529052734375,-0.07649111900627613,-0.5083350143238902,-0.621516864606738
1747237107407560200,3.667560302734375,0.2598147192686796,-0.5642686446003615,-0.5648620804488659
1747237107417591000,3.677591064453125,0.698151775997877,-0.7610041726868599,-0.5543792648792266
1747237107427621000,3.68762109375,0.6979384255081414,-0.7809028321817517,-0.752276164895296
1747237107437652200,3.69765234375,0.12149813546836376,-0.2515394967459142,-0.7597720736086369
1747237107447683000,3.70768310546875,-0.5285165093481541,-0.07172858077958226,-0.866914351466298
1747237107457714200,3.717714111328125,-0.9785188694298267,-0.024187661925703284,-1.0691074873715638
1747237107467745300,3.727745361328125,-0.9708131173580884,0.30250629839524623,-1.5851725114256143
1747237107477776400,3.7377763671875,-0.594047258400917,1.0754486730918287,-2.244052015221119
1747237107487807200,3.74780712890625,-0.10038462029099464,1.0482969006635248,-2.24354640378654
1747237107497838300,3.75783837890625,0.2219733566522598,1.2220759891197084,-1.5980109502106905
1747237107507869200,3.767869140625,0.376332143715024,1.0988359784200787,-0.40040158608853815
1747237107517900300,3.777900390625,0.3878419642448425,0.28611835043504835,0.6663456018924713
1747237107527930400,3.787930419921875,0.19024667752385138,-0.38838966125547886,1.1690052009284495
1747237107537961200,3.797961181640625,-0.17142448815405367,-0.03154372377693653,0.8090630510002375
1747237107547992300,3.807992431640625,0.09413140511512756,-0.13165654138922692,0.500879145359993
1747237107558023200,3.818023193359375,0.2780792747557163,0.21988749028891325,0.5638233850508928
1747237107568054300,3.82805419921875,0.30661621793210503,-0.3497811136588454,1.1009878957569599
1747237107578085000,3.838085205078125,0.2829787372350693,-0.8035960177659988,1.3928560418903826
1747237107588116200,3.8481162109375,-0.5702057795643806,1.7378978520676494,-0.34715339550375934
1747237107598147000,3.85814697265625,-0.08131225555241108,2.52121739000231,-0.30570436378419397
1747237107608178200,3.86817822265625,0.6897334917426109,1.977919198846817,0.872065742880106
1747237107618208300,3.878208251953125,0.7838818479925393,1.3393226046234368,1.3154133212476968
1747237107628239000,3.888239013671875,0.062004913014173504,1.9218305241391063,0.49425651234984397
1747237107638270200,3.898270263671875,-0.1955091280966997,1.4864815433099865,-0.05021744458675384
1747237107648301000,3.908301025390625,-0.1679074199438095,1.8485346940428018,-0.605412702023983
1747237107658332200,3.918332275390625,-0.011126958692073821,1.7149229269325732,-1.113209079426527
1747237107668363000,3.928363037109375,0.24445056139826774,0.602176788842678,-0.8705278657883405
1747237107678394000,3.93839404296875,0.17436697134673595,-0.5447089347362518,-0.572077418655157
1747237107688425200,3.94842529296875,0.3041571343421936,-1.291550507362187,-0.20091829366385935
1747237107698456300,3.958456298828125,0.8697650647222995,-1.5182073456555605,0.2891647323936224
1747237107708486100,3.968486083984375,0.3407084571480751,-0.17551584912091492,-0.7149696398079395
1747237107718517200,3.978517333984375,-0.13570552451908588,0.2369540681630373,-0.5495283177167177
1747237107728548400,3.98854833984375,-0.6576034925103187,0.5406973610073328,-0.06157061325013637
1747237107738579200,3.9985791015625,-1.1477578302383422,0.8138871101558208,-0.010721300500631331
1747237107748610300,4.0086103515625,-1.3081518058121204,1.11773561694026,-0.01888824034333229
1747237107758641200,4.01864111328125,-0.874042595911026,1.151189850513637,0.2535147423416376
1747237107768672300,4.02867236328125,0.377594710996747,0.6084729663774371,0.53066871894598
1747237107778703000,4.038703125,1.0145563974946736,0.36814649917185305,3.141225895872712
1747237107788734200,4.048734130859375,-0.4894301151067018,1.3276003103867173,2.8747938042908907
1747237107798764300,4.058764404296875,-0.7796236060261726,0.8331345392003655,2.025560655465722
1747237107808795100,4.068795166015625,-0.4550701648652553,0.16955460262894628,1.3395429693758487
1747237107818826200,4.078826171875,-0.5380769493758678,-0.06338087754249572,0.593448707985878
1747237107828857000,4.088857177734375,-0.6653571753770112,0.19379209504574535,-0.3249035697728395
1747237107838888200,4.09888818359375,-0.38344519059062004,0.09735884272903203,-0.1035147350102663
1747237107848919000,4.1089189453125,0.22569793013334272,-0.4287348233863711,-0.3901829744130373
1747237107858950100,4.1189501953125,0.7259925536036491,-0.9200824625521897,-1.2301444370239973
1747237107868981200,4.128981201171875,0.7550269249081611,-0.7279039401829243,-0.7418389420330525
1747237107879012000,4.13901220703125,0.36483518266677856,-0.281651288023591,0.6496084021031856
1747237107889042200,4.149042236328125,-0.2269149047076702,0.31109803952127696,1.376825529065728
1747237107899073000,4.159072998046875,-0.5637748697340488,0.5994958791956305,1.7504606887817382
1747237107909104000,4.169104248046875,-0.39117023188471794,0.7880351682797074,1.6333862149745224
1747237107919135000,4.179135009765625,-0.5230711034238338,1.0075196307256817,1.8780033651113508
1747237107929166000,4.189166015625,-0.7901584440439939,0.9109703508138656,2.993899491664767
1747237107939197200,4.199197265625,-0.48616088417768477,0.8511632401049136,3.833271171689033
1747237107949228300,4.209228271484375,0.2216425172626972,0.9630842766717076,3.7172003219664096
1747237107959259400,4.21925927734375,1.005122798717022,0.6496905274286866,3.7379432502657175
1747237107969290200,4.229290283203125,1.3014298040807246,0.9519000348344445,3.173416100859642
1747237107979320300,4.2393203125,1.253421852236986,1.1721893839225173,2.5943887169361113
1747237107989351200,4.24935107421875,0.8718377793431281,1.4828545849844812,1.7555834386229514
1747237107999382300,4.25938232421875,1.4124749345958232,0.974191361619532,1.2242094940170645
1747237108009413000,4.2694130859375,2.540520348626375,0.8448071490764617,-1.9758076135203242
1747237108019444200,4.2794443359375,3.965446183994412,-0.686620620419085,-4.2517187020778655
1747237108029475300,4.289475341796875,5.842605499497056,0.6466819932624698,-5.136870721024274
1747237108039506200,4.299506103515625,7.1099506631463765,4.473619870276749,-5.410917963784933
1747237108049537300,4.309537353515625,4.2629923757642505,0.1303624099254608,-3.039924160736799
1747237108059568000,4.319568115234375,-2.3334622370332476,-2.6814316250950094,-4.361151136699319
1747237108069598200,4.32959814453125,-6.559193680417537,-3.695428635141253,-4.270605773377418
1747237108079629000,4.339629150390625,-6.296825185012817,-5.445180883392691,0.4588770098023116
1747237108089660200,4.34966015625,-3.0833915465414523,-6.544792230099439,3.1945266934275627
1747237108099691300,4.359691162109375,-0.09945698405206203,-4.8193218979284165,-1.5272840938195584
1747237108109722000,4.36972216796875,0.9054799367040395,-3.2259429914325475,-3.449024893848598
1747237108119753200,4.379753173828125,1.4760148020923136,-2.781882588620484,-3.5206811400443314
1747237108129784000,4.3897841796875,1.4231202472507953,-2.4335391065493224,-4.631043597868085
1747237108139815200,4.399815185546875,1.0304664988100527,-1.8701541129156947,-4.275653996677696
1747237108149846000,4.409845947265625,0.311584653994441,-1.56102883477211,-2.694708163036406
1747237108159876000,4.4198759765625,-0.15061550888121128,-1.015687739612162,-1.7585396580800412
1747237108169907200,4.4299072265625,-0.13963818779289722,-0.5825888757973909,-1.323795949667692
1747237108179938000,4.43993798828125,0.17510639153718946,-0.5665276755735278,-1.1054197407245636
1747237108189969400,4.449969482421875,0.5845400098651647,-0.6784732620596885,-0.781415165618062
1747237108200000300,4.460000244140625,0.9769038354486227,-0.7761798953130841,-0.5593818954721093
1747237108210031400,4.47003125,1.2512076833188532,-0.7339402977377176,-0.48537908615022896
1747237108220062200,4.480062255859375,1.2430623707860708,-0.5126145913392305,-0.32096243093162774
1747237108230093300,4.49009326171875,1.167672491019964,-0.08390724048167467,0.004042261128127575
1747237108240124200,4.500124267578125,2.0223983920425175,0.35288726298063994,0.7271589670345187
1747237108250154200,4.510154296875,0.9526023378849029,1.1232160941779612,1.2945935283198953
1747237108260185300,4.520185302734375,-0.6952753437787293,2.128947380182147,2.079941649472713
1747237108270216200,4.53021630859375,-2.135476489689946,3.011876462382078,2.6907816372424365
1747237108280247300,4.540247314453125,-0.7943500505149363,3.103329588198662,1.3887392542213202
1747237108290278100,4.550278076171875,1.7095009018838405,2.563847740460932,-0.21519407177567482
1747237108300309200,4.560309326171875,2.00352008857131,1.910588414634764,-0.03464753501117229
1747237108310339800,4.57033984375,1.0589175172686576,1.1087678821086884,0.6389718572765588
1747237108320371000,4.580370849609375,-0.7765303161859511,0.5761147113472223,0.7839034753024577
1747237108330401800,4.59040185546875,-1.7472060708999633,0.5953206393375993,1.1064917538702488
1747237108340432000,4.600431884765625,-0.9989981783568859,0.6148419168874621,0.3426210127711296
1747237108350463000,4.610462890625,-0.16267711807489393,0.20319325285851955,0.3093359982848167
1747237108360493800,4.620493896484375,-1.3461498202949762,0.18606354662030936,1.4272943180650473
1747237108370525000,4.63052490234375,-0.5492950934827328,0.17992635903954504,1.5837141293108463
1747237108380555800,4.6405556640625,0.963473275989294,-0.12973960185199976,2.653838100248575
1747237108390587000,4.6505869140625,1.4477233581095934,-1.3220967445343732,4.041165734106302
1747237108400617700,4.66061767578125,-0.48412967061102385,-0.8019049959391356,1.3804863896608353
1747237108410648800,4.67064892578125,-0.8051146056354045,-0.9122238580062985,0.999520156404376
1747237108420680000,4.680679931640625,-0.774292766392231,-0.47069180462807414,0.5585720403939485
1747237108430709800,4.690709716796875,-0.8787667018234729,0.3061433397233486,0.03364391092658043
1747237108440740900,4.700740966796875,-0.38974458299577236,-0.04846738604903221,-0.37533962554633615
1747237108450772000,4.71077197265625,-0.10137889202535152,-0.3955886328488588,-0.8215952003151178
1747237108460803000,4.720802978515625,0.1605132180392742,-0.4264420362740755,-0.6705325321882962
1747237108470834000,4.730833984375,0.27432898231148717,-0.3912959040910005,-0.6776502552390098
1747237108480865000,4.740864990234375,0.20555530581474302,-0.19493308177441357,-0.6451578524351119
1747237108490896000,4.750895751953125,0.20972119332253933,-0.029598727189004418,-0.43241351189911365
1747237108500927000,4.760927001953125,0.13232991060614585,0.10812369011044502,-0.17729776410162448
1747237108510957000,4.77095703125,-0.05934183128476143,0.31593378911465403,-0.06710662006735801
1747237108520988000,4.78098779296875,-0.1182762508124113,0.5512912357360125,-0.10548048212528228
1747237108531019000,4.79101904296875,-0.3061865943431854,0.6761556327670812,0.467122421708703
1747237108541049900,4.8010498046875,-0.38063480934500693,0.5862760398775338,0.565523759227991
1747237108551081000,4.8110810546875,-0.14196809204518795,0.2719787659235299,0.2343476850569248
1747237108561111800,4.82111181640625,0.16574118182063102,-0.10926306940391659,0.13003858479857444
1747237108571143000,4.831142822265625,0.12826982156038283,-0.5423940819226205,0.27600831370055673
1747237108581174000,4.841174072265625,-0.08913783461153507,-0.8793117684856057,0.1548883638948202
1747237108591204900,4.851204833984375,-0.13013035473525522,-0.7490691855475307,-0.3256219471752643
1747237108601235000,4.86123486328125,0.09899813436865806,-0.6034697512626648,-0.47840603226721284
1747237108611265800,4.871265869140625,0.25210896719694137,-0.20305136016979813,-0.5215612833827734
1747237108621297000,4.881296875,0.4329764064788818,0.2364972643062472,-0.44012394014596934
1747237108631327700,4.89132763671875,0.6725970635026693,0.4054825426146388,-0.026427988198399543
1747237108641358800,4.90135888671875,-0.09332534942924976,0.2172679554402828,0.2690992649644613
1747237108651390000,4.911389892578125,-1.14063776910007,-0.1331573013409972,0.1157446865081787
1747237108661420800,4.9214208984375,-1.046035239341855,-0.3575672374904156,-0.31874329357743264
1747237108671452200,4.9314521484375,-0.47693011449575423,-0.5212620081752538,-0.2155950537919998
1747237108681483000,4.94148291015625,-0.428902873429656,-0.7334121822103857,0.3260995015591383
1747237108691512800,4.951512939453125,-0.017587094616889953,-0.5849447912737726,0.30336510718166826
1747237108701544000,4.9615439453125,0.4855787003755569,-0.07080255197584628,0.12311141588389873
1747237108711575000,4.971574951171875,0.6909165640473366,0.27711159876734015,-0.31912790898084636
1747237108721606100,4.981606201171875,0.6432394515931605,0.6507349219150841,-1.4597522340774536
1747237108731637000,4.991636962890625,0.21861352483034133,0.757791128924489,-0.3699830669492483
1747237108741668000,5.001668212890625,0.2764355992019176,0.40976591902226206,-0.493622306099534
1747237108751699000,5.011698974609375,0.6056278060793876,-0.2433331016756594,-0.882367941185832
1747237108761730000,5.02172998046875,0.22142624416351317,-0.38231589429974555,-0.699586192715168
1747237108771761000,5.031760986328125,-0.3506991052865982,0.1798430646702647,-0.1363192725032568
1747237108781791000,5.041791015625,-0.21682254976034163,0.1527117505080998,0.4953688575059175
1747237108791822000,5.051822021484375,-0.17905834403336046,-0.13139496784359217,1.0593003791064024
1747237108801853000,5.06185302734375,-0.47590135596990585,-0.39077889447957276,1.7990695291280745
1747237108811884000,5.071884033203125,-0.8059177387118339,-0.2892677543766796,1.1429846244871615
1747237108821915000,5.081914794921875,-0.017682956206798554,0.0493644810192287,1.3207435763597488
1747237108831946000,5.091946044921875,0.3921919761478901,-0.21847543153390286,0.6638368339419365
1747237108841976800,5.101976806640625,0.33849662631750105,-0.2796443321153521,0.4752998829454183
1747237108852008000,5.112008056640625,0.3480541437357664,-0.20271131456047295,0.25030922429859637
1747237108862038000,5.1220380859375,0.30890871278345583,-0.01067322357520461,0.24818331818580627
1747237108872068900,5.13206884765625,0.20494038878679274,0.4230275516554713,0.08144552654325962
1747237108882100000,5.142099853515625,0.0648503655731678,0.41994244512170553,0.22052900306284426
1747237108892130800,5.152130859375,-0.011762333986163139,0.2586709560610354,0.36046295893192287
1747237108902162000,5.162161865234375,-0.06034720893502235,0.16996800573542714,0.17686755599081516
1747237108912192800,5.17219287109375,0.10303308897316456,-0.04674465390965342,0.0728933867752552
1747237108922224000,5.18222412109375,0.2046107184410095,-0.44171442420780654,0.14022095611691474
1747237108932255000,5.1922548828125,0.13057517589330672,-0.7674383704528213,-0.27623393914997574
1747237108942286000,5.2022861328125,-0.0299111541390419,-0.7888802408017218,-0.645411534935236
1747237108952317000,5.21231689453125,-0.08664251066446303,-0.2941998039513826,-0.6408575248926878
1747237108962347000,5.222346923828125,-0.15104045629501342,0.1719632712058723,-0.515564088794589
1747237108972378000,5.232378173828125,-0.13890578186511993,0.2513360831283033,-0.5415297201782465
1747237108982409000,5.242408935546875,0.01902326489984989,0.20012363615483045,-0.5708300489425658
1747237108992440000,5.252440185546875,0.31816227881908415,0.05518135060444474,-0.6642746408373117
1747237109002471000,5.262470947265625,0.24312486575245856,-0.2652126327894628,-0.4425958832174539
1747237109012502000,5.272501953125,-0.14832359855175017,-0.7496142522096634,-0.06827566384673119
1747237109022532900,5.282532958984375,-0.24194354701340198,-0.952365314258635,0.28028058419227597
1747237109032564000,5.29256396484375,-0.0349216757774353,-0.8667930631741881,0.6006453414916992
1747237109042594800,5.3025947265625,-0.02493278120458126,0.2498484749190509,-0.056873979866504665
1747237109052625000,5.312625,-0.44053427451252936,0.24973376249819992,0.41251930938363074
1747237109062656000,5.322656005859375,-0.5483955142945051,-0.11670695566907524,0.4755681784927845
1747237109072686800,5.332686767578125,-0.5071341141015291,-0.5263594774447381,0.3896598273217678
1747237109082718000,5.342718017578125,-0.2637058814883232,-0.7515168709605932,0.03931494230031967
1747237109092748800,5.352748779296875,0.02624035667181015,-0.6114806237608194,-0.4235387160480022
1747237109102780000,5.36277978515625,0.21271920609474182,-0.08594590670242905,-0.8363000174939632
1747237109112810800,5.372810791015625,0.2642687760680914,0.41230756632909177,-0.8395505437225103
1747237109122841900,5.382841796875,0.04552607190012931,0.6452956534706056,-0.5750333458513021
1747237109132872700,5.392872802734375,-0.006755904000997543,0.7249133800648152,-0.43830373898148534
1747237109142902800,5.40290283203125,-0.015480477726459503,0.34086496288403867,-0.24776830764412877
1747237109152934000,5.412933837890625,-0.02325052720606327,-0.010546382325142621,0.024495558831095693
1747237109162964700,5.42296484375,0.11790624845623969,-0.146491560819,0.08359948970675468
1747237109172996000,5.43299609375,-0.02592529937326908,-0.1436466927818954,0.20874445724487303
1747237109183027000,5.44302685546875,-0.11079495514631271,-0.059691375374794006,0.5622223795950413
1747237109193058000,5.45305810546875,-0.3074970924198627,-0.03140957600325346,0.6020557928115129
1747237109203089000,5.4630888671875,-0.5187871424943208,-0.15240589942932128,0.6167337219834327
1747237109213120000,5.4731201171875,-0.562284338915348,-0.19992109932005403,0.41772096967995165
1747237109223150800,5.48315087890625,-0.2219651733458042,0.14955270195528864,0.14391338089406489
1747237109233181000,5.493180908203125,0.27791210149526596,0.2530678753569722,0.18773381792008875
1747237109243212000,5.5032119140625,0.47442193106710906,0.23730346612259745,-0.3665840721607208
1747237109253243000,5.513242919921875,0.22147943565547465,0.6870511207908392,-0.6356541110306978
1747237109263274000,5.52327392578125,-0.010116904866695404,0.35410540659874673,-0.16822715341746805
1747237109273304800,5.533304931640625,0.10915303315818309,-0.056629941977560515,-0.05148819517493248
1747237109283336000,5.5433359375,0.0877682998239994,-0.5133639484018087,-0.4263227938085794
1747237109293366800,5.55336669921875,0.029617724150419234,-0.6234953250728548,-0.2916857753038406
1747237109303398100,5.563398193359375,-0.13737433451414108,-0.32539106102883814,-0.19763035803437232
1747237109313429000,5.573428955078125,-0.3492085744678974,-0.17086919235885142,0.043564416438341136
1747237109323459000,5.583458984375,0.03304477598965168,0.059860156070441005,0.004935702836513519
1747237109333490200,5.593490234375,0.5107961437404156,0.8101819720275699,-0.27214228592216966
1747237109343521000,5.60352099609375,0.3449690372020006,1.0141821573548018,0.580235006147623
1747237109353552100,5.61355224609375,-0.4133054913252592,0.32534941384419797,0.5137006330102681
1747237109363583000,5.6235830078125,-0.6134475399196148,-0.4356381730340421,0.4763946924448013
1747237109373614000,5.633614013671875,-0.3860498201310634,-0.7315126321993768,0.4741594807386398
1747237109383645200,5.643645263671875,-0.3909662337452173,-0.6818002145253121,0.22002514519393443
1747237109393676300,5.65367626953125,-0.10894728145301341,-0.3530862926840782,0.05598901372551918
1747237109403707400,5.663707275390625,0.21321955683231353,0.04810425182506442,-0.17797288688421248
1747237109413738200,5.67373828125,0.3109007633835077,0.048911330424249166,0.09867606280744075
1747237109423768300,5.683768310546875,0.12803835089206694,-0.09379720472469925,0.02138297976851463
1747237109433799200,5.693799072265625,0.06231821674704551,-0.3062126055672765,0.044783729100227355
1747237109443830300,5.703830322265625,0.1084685580253601,-0.6399383642211556,0.2845920176506042
1747237109453861000,5.713861083984375,0.10289923346042633,-1.1918553306400774,-0.06948562415838241
1747237109463892200,5.723892333984375,-0.11336977407038211,-0.35263811052516103,-0.8692951091229915
1747237109473923300,5.73392333984375,0.12209610136151314,0.607015607175976,0.3762830438762903
1747237109483954200,5.7439541015625,0.1041466031730175,0.14970307021141052,0.23018881181180476
1747237109493985300,5.7539853515625,0.15683891344070433,0.308711582776159,-0.08167758173346519
1747237109504016100,5.76401611328125,0.15850830795764922,0.08672624342516064,0.011236264285445212
1747237109514046200,5.774046142578125,-0.02059796687066555,-0.06762582163587212,0.06256605402827263
1747237109524077000,5.7840771484375,-0.16902327223122118,-0.12388342316970229,-0.020026304462552068
1747237109534108200,5.794108154296875,-0.1950163761436939,-0.22589652144536373,-0.10860182901620864
1747237109544139300,5.80413916015625,-0.16202362260222433,-0.09900675606653093,-0.29396774876117704
1747237109554170000,5.814170166015625,-0.07853402301073074,0.054216597225517034,-0.3091010204851627
1747237109564201200,5.824201171875,0.03028349458277225,0.06298413330987096,-0.20086568669378757
1747237109574232000,5.834232177734375,0.02023380973339081,0.12043036010637878,-0.11565642370283603
1747237109584263200,5.84426318359375,0.04497311419248581,0.16823095280975103,-0.04100771769285202
1747237109594294000,5.8542939453125,0.06140986973047256,0.18344766503348944,0.097157474938035
1747237109604325400,5.864325439453125,-0.07393149765133858,0.07804799305945634,0.15967618269324302
1747237109614355200,5.874355224609375,-0.28216508276462554,-0.1371706286355853,0.09873743760585785
1747237109624386000,5.884385986328125,-0.22121347819566725,-0.3430332468338311,-0.033875381594896316
1747237109634417400,5.89441748046875,-0.004694879817962646,-0.2257429383188486,-0.12335749959945679
1747237109644448300,5.9044482421875,0.1447802268564701,-0.06058364803940058,-0.04117605999708175
1747237109654479400,5.914479248046875,0.1653413688480854,0.18001067632213233,0.03847615338861942
1747237109664510200,5.92451025390625,-0.05429974546432495,0.3064364774510264,0.2786597049921751
1747237109674541300,5.934541259765625,-0.34654315465092655,0.3102580815657973,0.37696576544344423
1747237109684572200,5.944572265625,-0.30960955452919003,0.3695519820556044,0.2832195602536201
1747237109694603300,5.954603271484375,0.009493804532289504,0.33234979412555693,0.0884393309533596
1747237109704634000,5.964634033203125,0.17783026354312895,0.2893719454035163,0.005035656079649925
1747237109714664200,5.974664306640625,0.31975685453414915,0.44338601068183775,-0.29474808548390863
1747237109724695300,5.9846953125,0.350029827722907,0.48750484613254663,-0.4040449110269546
1747237109734726100,5.99472607421875,0.07522095293998718,0.2539350135803223,-0.2583136670559645
1747237109744757200,6.00475732421875,-0.6315519364088773,-0.06395327060297132,-0.44066170028448104
1747237109754788000,6.0147880859375,-0.6824930190950632,-0.2092128054089844,0.10122691633403301
1747237109764819200,6.024819091796875,-0.2688864989966154,-0.7472102598078548,0.005112228447198867
1747237109774850000,6.03485009765625,-0.128812257874012,-0.5416315731175243,0.24763152952194212
1747237109784881200,6.044881103515625,-0.009187515062093735,-0.7596551692306995,0.6806371620953082
1747237109794912000,6.054912109375,0.10016133292913436,-0.7941191643685102,0.07576981899440288
1747237109804943000,6.064943115234375,-0.06522679767012596,-0.3591325871109962,-0.028707623568177222
1747237109814973200,6.07497314453125,-0.12410101144313812,-0.5971031388401985,0.10665361755788326
1747237109825004000,6.085004150390625,-0.05599485894441604,-0.4008490375950932,-0.23791326858401296
1747237109835035100,6.09503515625,0.006603928309679031,0.13899185271337627,-0.3532365148097277
1747237109845066000,6.10506591796875,0.06093816056549549,0.7386712717823684,-0.7116933946162461
1747237109855097300,6.115097412109375,0.10553542718291282,-0.609994038464874,0.10861878015100955
1747237109865128200,6.125128173828125,0.1647697064399719,-0.9967214655965566,-0.6576274579077959
1747237109875159300,6.1351591796875,0.07714987517595291,-0.5111912805378437,-0.7045166348546743
1747237109885190100,6.145190185546875,0.16010580628216264,-0.057114510624110694,-0.8722638958007096
1747237109895221200,6.15522119140625,0.12543255230784414,0.6992240814045071,-0.4151666090220213
1747237109905252000,6.165252197265625,0.07150514728724956,0.5574057730935513,0.11514964322447777
1747237109915282200,6.1752822265625,-0.187565475615859,0.2755637848034501,0.47892917935848234
1747237109925313300,6.185313232421875,-0.43168636666834354,-0.04328676854074001,0.5463549483776092
1747237109935344000,6.19534423828125,-0.49987318318784235,-0.02661342776790261,0.30856852104365823
1747237109945375200,6.205375244140625,-0.4362169958353042,0.11951850595846772,0.26769290529787537
1747237109955406000,6.215406005859375,-0.3157318368017673,0.35383594200760127,0.0984995371967554
1747237109965437200,6.225437255859375,-0.1311520989984274,0.19231413144767284,0.03199965085089206
1747237109975468000,6.235468017578125,0.08109422888755798,-0.22500220295414328,0.013846154522895813
1747237109985499100,6.2454990234375,0.22166823622584342,-0.6418075190939009,-0.42391690171062946
1747237109995530200,6.2555302734375,0.34558921492695804,-0.1504233473099768,-0.27686230018138885
1747237110005561000,6.26556103515625,0.3266530437886715,-0.7400564425304531,-0.2078308495312929
1747237110015592200,6.27559228515625,-0.07553893284797668,0.36395226235240696,-0.1381271987080574
1747237110025622000,6.2856220703125,-0.18515373829901216,0.25536416960060593,0.3020785745024681
1747237110035653000,6.295653076171875,-0.14866905098855496,0.20565467453598976,0.31898119398653507
1747237110045684200,6.305684326171875,-0.18174597568213938,0.36152868846729397,0.36048224815428254
1747237110055715000,6.315715087890625,-0.1785994943499565,0.2614316529460251,0.27937691335082054
1747237110065746200,6.32574609375,-0.14126725029945372,0.3071896339058876,0.14246376660764218
1747237110075777300,6.33577734375,-0.009521861582994461,0.05535100808292627,0.25758067660629747
1747237110085808400,6.345808349609375,0.07062777993083,-0.14435586396455763,-0.17453940530419348
1747237110095839200,6.355839111328125,0.04167290360331535,0.3752595460474491,-0.2720002471029758
1747237110105870300,6.365870361328125,0.10966039815843105,0.16215075611323118,-0.06238543676435947
1747237110115900200,6.375900146484375,0.19991583862304688,-0.7821922874704003,0.15848492708206177
1747237110125931300,6.38593115234375,0.16618541845679283,-0.7303241530671716,-0.2547346395254135
1747237110135962400,6.39596240234375,-0.039276363855600356,0.8297799680754542,0.27841771292984485
1747237110145993200,6.4059931640625,-0.15468202766776085,0.550088143556565,0.4505173238664865
1747237110156024300,6.4160244140625,-0.12809037334024906,0.1093158225044608,0.6466781938701868
1747237110166055200,6.42605517578125,-0.09130816438794136,-0.3530556052848696,0.4958358904957771
1747237110176086300,6.436086181640625,-0.10308511142134666,-0.1355557407848537,0.3616273265361786
1747237110186117000,6.4461171875,-0.08392623744308948,-0.6525017854571342,0.3057382660537958
1747237110196148200,6.456148193359375,-0.03193827605247497,-0.3596287000648677,-0.18733575851321219
1747237110206179000,6.466178955078125,0.08636427824497223,0.65296195031479,-0.23056524390876293
1747237110216210200,6.476210205078125,0.20094109001755714,0.2822951388850808,-0.13194587972462177
1747237110226240300,6.486240234375,0.16552549324333668,0.33605274029672144,-0.08655833951234818
1747237110236271000,6.49627099609375,0.21237258461415767,0.5343716651171445,-0.27938977283239363
1747237110246302200,6.50630224609375,0.11273322973251342,-0.32249972350150347,0.19898644881844518
1747237110256333000,6.5163330078125,-0.11804361110031604,-0.6425850793376564,0.005009937116503715
1747237110266364200,6.5263642578125,-0.267016613471508,-0.9677937695369124,0.2707598916530609
1747237110276395000,6.53639501953125,-0.38966041184365746,0.1352528123155236,-0.3604156126588583
1747237110286426000,6.546426025390625,-0.21034780078828333,-0.4205772358939051,0.3499783897966146
1747237110296457200,6.556457275390625,-0.24687340463101862,-0.7681465187221765,-0.19035306050777434
1747237110306489000,6.566489013671875,-0.26438801853358745,-0.5892299212470651,-0.2575269005924463
1747237110316520000,6.57652001953125,-0.3960644336670637,-0.6030354514986276,-0.35940438978970046
1747237110326551000,6.586551025390625,-0.4389548963665962,-0.721849608580023,-0.1929085902094841
1747237110336580900,6.596580810546875,-0.3575052781701088,-0.8849078349269927,-0.0867266818165779
1747237110346612000,6.606612060546875,-0.28970132348835465,-1.4039198722183703,0.30884324633181093
1747237110356643000,6.61664306640625,-0.14647183320522308,-2.079910815943032,0.9267524418354034
1747237110366674000,6.626673828125,0.03649754679203033,-1.0542546400241553,1.030294649374485
1747237110376705300,6.636705322265625,-0.15625029989778993,-1.0888656424172223,1.4286545005023479
1747237110386736000,6.646736083984375,-0.029769699841737746,-1.9616822036646306,2.3206775742620227
1747237110396767200,6.656767333984375,0.2794353655397892,-0.29405878804549573,1.1080553499251604
1747237110406798000,6.666798095703125,0.4750906241089105,1.8463136569924652,0.26420915483534335
1747237110416829200,6.6768291015625,0.2734785029619932,2.1768324362985787,0.6509259144425392
1747237110426860000,6.686860107421875,0.3610433891683817,2.7796035377725956,0.745515584719181
1747237110436891100,6.69689111328125,0.458140658351779,2.8238065443754197,0.5503215139210224
1747237110446921200,6.706921142578125,-0.12320903103947639,2.5886604024171826,-0.2588742235481739
1747237110456952000,6.7169521484375,-1.2274620660722255,1.8204994167782365,-2.473301500356197
1747237110466983200,6.726983154296875,-1.2063549806356428,0.5921971004895865,-4.277564506474137
1747237110477014000,6.737013916015625,-0.24277765974998472,-0.6722339292787015,-4.167725829139352
1747237110487045000,6.747045166015625,-0.4743570491373539,-1.3939061354652047,-3.7915620277285575
1747237110497076000,6.757075927734375,-0.2698579743772745,-1.3950503370642662,-2.797486108204722
1747237110507107000,6.767107177734375,0.6043108782619238,-1.191130815757811,-1.7831629349440334
1747237110517138000,6.777137939453125,1.0335048435926437,-0.9883486279182135,-0.7322253105133771
1747237110527169000,6.7871689453125,0.3478822943001985,-0.4023074197098613,0.06636895344257354
1747237110537199900,6.797199951171875,0.15416706388294696,0.3780101599298417,0.6757657566666603
1747237110547231000,6.80723095703125,0.2690940042674541,0.9379780385963619,1.4919061987072229
1747237110557261000,6.817260986328125,0.6222539467096329,1.3256129359617828,2.191113621237874
1747237110567292000,6.8272919921875,-0.5036246446758509,0.9127611797533929,1.350523797595501
1747237110577323000,6.837322998046875,-0.5851426519334316,0.1716406151227653,1.003002153301239
1747237110587353900,6.847353759765625,-0.9065759152472018,-0.2747828635588288,0.8666904795825481
1747237110597385200,6.85738525390625,-0.5724690483212471,-0.4692459897339344,0.9377139808326959
1747237110607416000,6.867416015625,-0.5294458991527558,-0.725211340098083,0.9542050969064235
1747237110617447200,6.877447265625,-1.6562006888508796,-0.6297767434298992,-0.6289437997370958
1747237110627478000,6.88747802734375,0.9637275430113077,-0.5457682345308363,-0.17930851940214632
1747237110637509000,6.897509033203125,1.5912988853514194,-0.4264490505367517,0.5254115290701389
1747237110647540000,6.9075400390625,0.18696283354759216,-0.005959200665354728,-0.020703180810809133
1747237110657571000,6.917571044921875,0.06302782632112502,0.07682736522331833,-0.7494973478317261
1747237110667601200,6.92760107421875,-0.1035538979768753,-0.16128639436885714,-0.6705278560131788
1747237110677632000,6.937632080078125,-0.204693720549345,-0.19006342991143463,-0.5857710129648447
1747237110687663000,6.9476630859375,0.18049217622876165,-0.12392039417922496,-0.5976788929015397
1747237110697694000,6.95769384765625,0.30438100622594355,-0.10325272307321429,-0.4670002566337585
1747237110707725000,6.96772509765625,0.26015724909603594,-0.12282485402747988,-0.02471007836461067
1747237110717756200,6.977756103515625,0.18157295720279215,-0.09379369759336113,0.39696342833340165
1747237110727787000,6.987787109375,-0.01976443865597248,-0.043010143556445835,0.47075814786255354
1747237110737818000,6.997818115234375,-0.052471945515274995,0.06792100519016385,0.610530191168189
1747237110747849000,7.007848876953125,-0.02159048503935337,0.14498217916935682,0.690315091022849
1747237110757880000,7.017880126953125,0.071978025496006,0.17175839628353715,0.7621884871006012
1747237110767911000,7.027910888671875,0.15807517723739145,0.15806962427943944,0.7483353183150291
1747237110777942000,7.03794189453125,0.2171732628941536,0.09284940248057245,0.6561030248194932
1747237110787972000,7.04797216796875,0.2908814731836319,-0.013268500765413044,0.5441974780827761
1747237110798003000,7.0580029296875,0.28859482355117794,-0.12088029583096503,0.33679332953095437
1747237110808034000,7.068033935546875,0.24224749839603898,-0.21874533451646566,0.13667758442163466
1747237110818065200,7.078065185546875,0.2112210764914751,-0.27561872986108066,-0.05217910004854202
1747237110828096300,7.08809619140625,0.21504969486892223,-0.29483254889696836,-0.17242869676053524
1747237110838127000,7.098127197265625,0.19911971980929374,-0.23557664232999084,-0.20888708058595656
1747237110848158200,7.108158203125,0.17491992905437945,-0.1981229638569057,-0.17862696687877178
1747237110858189000,7.11818896484375,0.15327332991361617,-0.15955620957538486,-0.09711012866497039
1747237110868220200,7.12822021484375,0.13107494210898876,-0.11663126008436082,0.020027473506331443
1747237110878251000,7.1382509765625,0.1143722291111946,-0.10563830303549766,0.1496206526249647
1747237110888282000,7.1482822265625,0.12319675607979297,-0.09157865189239382,0.22125381020605564
1747237110898312200,7.158312255859375,0.1422796422123909,-0.13142887011319399,0.2683703661680221
1747237110908343000,7.168343017578125,0.12552081511318683,-0.16560981052592397,0.3146364427804947
1747237110918374100,7.1783740234375,0.1320049164354801,-0.19813626172989607,0.3105874596506357
1747237110928405000,7.188405029296875,0.11213584836125373,-0.20819325310289857,0.3066705784678459
1747237110938436000,7.19843603515625,0.08651625393629074,-0.2557220431275666,0.1961497640877962
1747237110948467000,7.208467041015625,0.029292729979753494,-0.26884105241969225,-0.004237199178338051
1747237110958498000,7.218498046875,-0.0431564201593399,-0.204488553366065,-0.05689385361075401
1747237110968529000,7.22852880859375,-0.04692424826025963,-0.1354207162283361,0.010284662649035454
1747237110978560000,7.23856005859375,0.09116554104685783,-0.1349186119250953,0.04621639225184917
1747237110988590800,7.2485908203125,0.1181581773906946,-0.10750804243013262,0.009212649503350257
1747237110998622000,7.2586220703125,-0.13240531392991542,-0.07122296934500336,-0.051883331972360607
1747237111008653000,7.268653076171875,-0.3622171091228723,-0.010491145006567238,-0.012923194459080696
1747237111018683000,7.278682861328125,-0.36647418204545973,0.038215456625819204,0.12515724249780177
1747237111028714000,7.2887138671875,-0.16684768175780773,0.04017696595713496,0.18863047449886797
1747237111038745000,7.2987451171875,0.024992986959218977,0.01769873829782009,0.1913221978008747
1747237111048776200,7.308776123046875,0.07160451600849628,-0.008089782953262329,0.06481880139112473
1747237111058807000,7.31880712890625,-0.01424362940788269,-0.01709507331624627,-0.14196692300140856
1747237111068838100,7.328838134765625,-0.19249474871158598,0.04981251704767346,-0.36998891216814517
1747237111078869000,7.338868896484375,-0.34837563077509404,0.10735592060834169,-0.5058610254257917
1747237111088900000,7.348900146484375,-0.4381096777141094,0.12257628609389067,-0.5485223555445671
1747237111098931200,7.35893115234375,-0.41623394599258895,0.13964461753368376,-0.6110510001718997
1747237111108962000,7.368962158203125,-0.2775648954927921,0.16953487501516937,-0.566530890443921
1747237111118993200,7.3789931640625,-0.06767068369090556,0.17949074410125612,-0.40256314803659915
1747237111129024000,7.38902392578125,-0.010906009417772292,0.22483853682503102,-0.27811142345964907
1747237111139054000,7.39905419921875,-0.08109189079999923,0.22758988135978578,-0.30877251918315884
1747237111149085000,7.4090849609375,-0.2027507697880268,0.16853022801727055,-0.3653869713306427
1747237111159116000,7.419115966796875,-0.31330607095956803,0.12195917710885405,-0.3745955291807651
1747237111169147100,7.429147216796875,-0.34389117883741854,0.09271817731633782,-0.3639958092331886
1747237111179178000,7.439177978515625,-0.29249124646782876,0.0693748572602868,-0.27365561309456826
1747237111189209000,7.449208984375,-0.23857260927557944,0.06944222340807318,-0.17496376819610596
1747237111199240000,7.459239990234375,-0.16040274340212343,0.08158814988434314,-0.058869537597894664
1747237111209271000,7.46927099609375,-0.13789865064918994,0.09174173349961638,0.0120820674598217
1747237111219302100,7.47930224609375,-0.11975626023709773,0.1151587033137679,0.09273381327688693
1747237111229333200,7.489333251953125,-0.07997545399069786,0.11616890326961875,0.14172785354852677
1747237111239364000,7.499364013671875,-0.05605448017716407,0.08304770104289054,0.14511223528981207
1747237111249395200,7.509395263671875,-0.02346095508635044,0.04862959087342023,0.14429390464425085
1747237111259425300,7.51942529296875,0.020997779843211172,0.013981032948940991,0.125643564710021
1747237111269456100,7.5294560546875,0.054905310142040246,0.010622224040329456,0.14210019399225712
1747237111279487200,7.5394873046875,0.056559507089853286,0.013886632663756608,0.16229425623714924
1747237111289518000,7.54951806640625,0.05920446864068508,0.04450111276656389,0.1886556089401245
1747237111299549200,7.559549072265625,0.08029927911758422,0.06851122616827487,0.2606424022644758
1747237111309580000,7.569580078125,0.10782558394670486,0.1320144149161875,0.2943751605182886
1747237111319611100,7.579611083984375,0.0991314053595066,0.17315467294752596,0.32235739242136474
1747237111329642000,7.58964208984375,0.13464753989875317,0.18840996361598372,0.34122049832344054
1747237111339673000,7.599673095703125,0.15009294631183145,0.19074264434725044,0.3606096739262342
1747237111349704000,7.609703857421875,0.14047756122648716,0.19708163811042903,0.363614700961113
1747237111359735000,7.619735107421875,0.1337789403706789,0.1552792629085481,0.3221925572484731
1747237111369766000,7.629765869140625,0.11804653370976448,0.10760872632563113,0.26698037311434747
1747237111379797000,7.639796875,0.13746727349460125,0.08674290229901671,0.23471710289120673
1747237111389827000,7.6498271484375,0.13966741388738155,0.03988514340370893,0.1806552578359842
1747237111399858000,7.65985791015625,0.1435994926393032,-0.019320348150283096,0.08791852194964885
1747237111409889000,7.669888916015625,0.13223814066946507,-0.05520560826286673,0.05292144284844398
1747237111419920000,7.679919921875,0.10337854140996933,-0.09718597038015722,0.002596446233987808
1747237111429951000,7.689950927734375,0.07626023285984992,-0.11579729347825049,-0.027158056038618088
1747237111439982000,7.699982177734375,0.07079553771317004,-0.1085778636187315,-0.023643325915932652
1747237111450013200,7.71001318359375,0.062251581251621245,-0.12159487384110688,-0.048589551123976706
1747237111460044000,7.7200439453125,0.04204232143759727,-0.1433605693168938,-0.05856909334659576
1747237111470075100,7.7300751953125,0.06874035874903202,-0.12003069326430559,-0.008710545200109481
1747237111480106200,7.740106201171875,0.04708148464858532,-0.11912570724859833,-0.05218611431121826
1747237111490137000,7.75013720703125,0.0051864627271890635,-0.14149550609737635,-0.07556815894246101
1747237111500168200,7.760168212890625,-0.024117373168468473,-0.18849603446424007,-0.07972995479702949
1747237111510198000,7.770197998046875,-0.05102817644774914,-0.20032237359732388,-0.10680325516164302
1747237111520229000,7.78022900390625,-0.05102233122885227,-0.2141862099073827,-0.10631927103698254
1747237111530260000,7.790260009765625,-0.03801847274899482,-0.19758885698020456,-0.1156271976083517
1747237111540291000,7.800291015625,-0.018933833050727843,-0.18966463985219598,-0.10178805734813212
1747237111550322200,7.810322265625,-0.04187807078659534,-0.15245046922340988,-0.07087503269016743
1747237111560353000,7.82035302734375,-0.04082242425382137,-0.11182049880176782,-0.0767144063681364
1747237111570384100,7.830384033203125,-0.09545476267337799,-0.05605711052566766,-0.10100772062540053
1747237111580415000,7.8404150390625,-0.13570260190963745,-0.01960471804961562,-0.1681336299151182
1747237111590446000,7.850446044921875,-0.1588496687412262,-0.007414514040201902,-0.2254074227541685
1747237111600477000,7.860476806640625,-0.16538871512115,-0.029328385815024373,-0.23789748649299144
1747237111610508000,7.870508056640625,-0.18231822261214256,-0.03833586813509464,-0.2384048514932394
1747237111620539000,7.880538818359375,-0.20939327654242515,-0.039803456469625235,-0.24044658645391462
1747237111630569000,7.89056884765625,-0.23527356773018834,-0.007113485267013311,-0.20445231300890446
1747237111640600000,7.90060009765625,-0.24388474420905112,0.00790536629706621,-0.16479951705634593
1747237111650631000,7.910630859375,-0.2616711607903242,0.03474851116761565,-0.07503098332583903
1747237111660662300,7.920662353515625,-0.2178267583668232,0.07077347201183438,0.005109890359640121
1747237111670693000,7.930693115234375,-0.17740122447609902,0.09635784899294376,0.08638649007678031
1747237111680724200,7.94072412109375,-0.1185375320971012,0.14932473841831087,0.09116378748118877
1747237111690755000,7.950755126953125,-0.10970306825637817,0.1822152006290853,0.0747884067416191
1747237111700786200,7.9607861328125,-0.09768997437953948,0.19469255101680755,0.05141045376360416
1747237111710817000,7.970817138671875,-0.1267249302059412,0.2240073466978967,0.0031306992411613463
1747237111720848100,7.98084814453125,-0.12249591433405875,0.26261706333830953,-0.05191781876385212
1747237111730879000,7.99087890625,-0.10268003775179385,0.26875731965899463,-0.11161796196699142
1747237111740910000,8.00091015625,-0.08837503354549407,0.2582365101665258,-0.11416647740602492
1747237111750941000,8.01094091796875,-0.06354980436861514,0.2704066943012178,-0.1435387023627758
1747237111760971000,8.020970947265624,-0.07373217568695545,0.27353344801962376,-0.22092998507916925
1747237111771002000,8.031002197265625,-0.04582417806386947,0.2615773450270295,-0.22237200058102607
1747237111781033000,8.041032958984376,-0.03244797914028168,0.25408172857463357,-0.22026421464681625
1747237111791064000,8.05106396484375,-0.027976386684179306,0.20904417084380983,-0.24982173304259775
1747237111801095000,8.061094970703126,-0.01782148789465427,0.21490312600508332,-0.32336510815918446
1747237111811126000,8.0711259765625,0.020639467924833295,0.08732040992602705,-0.2846545614928007
1747237111821156900,8.081156982421875,0.07978606889843941,-0.009033931935578584,-0.21348317620456217
1747237111831188000,8.09118798828125,0.08259235849082469,0.0023864567451179026,-0.17297756281495094
1747237111841219000,8.101218994140625,0.09198971691131591,-0.0465332031160593,-0.08964227700233458
1747237111851250200,8.111250244140624,0.04314823685288429,-0.0823823690019548,-0.03607376842200756
1747237111861281300,8.12128125,0.04789338555335998,-0.1494128550931811,0.07096154192984104
1747237111871312100,8.13131201171875,0.12423311339020729,-0.20191402670294045,0.2577145321190357
1747237111881343200,8.14134326171875,0.12766776401400565,-0.2611696410089731,0.3482365145653486
1747237111891373000,8.151373046875,0.1166296526491642,-0.32112858127877114,0.3689022859752178
1747237111901404200,8.161404052734374,0.16615210070908068,-0.32701661640405655,0.3572071720063686
1747237111911435000,8.17143505859375,0.2549263627052307,-0.23421792119741439,0.44755847406089305
1747237111921466000,8.181466064453126,0.42617724785804745,-0.2525609487481415,0.43524318236708637
1747237111931497200,8.191497314453125,0.46049803513288495,-0.3147461137000471,0.37113574411571026
1747237111941528000,8.201528076171876,0.43171033206582066,-0.35330344256609675,0.2994645926117897
1747237111951559200,8.21155908203125,0.3897241247296333,-0.3824219119574874,0.21473113043904304
1747237111961590000,8.221590087890625,0.3071586542457342,-0.41091830392777917,0.16120353839099405
1747237111971621000,8.23162109375,0.2868985410273075,-0.47174993537887927,0.19273148007690905
1747237111981652000,8.24165185546875,0.30203707344830033,-0.5787890451230109,0.23001345524489877
1747237111991683000,8.25168310546875,0.34703239947259423,-0.7710556111019105,0.29656127238571645
1747237112001714000,8.2617138671875,0.33385610703527924,-0.8835293131154031,0.41158933505713935
1747237112011744000,8.271743896484375,0.18372224419116973,-0.6514267766367644,0.4371902247816324
1747237112021775000,8.281775146484375,0.07761573912203311,-0.43566359973624347,0.32110300844609735
1747237112031806000,8.291805908203125,0.038899931758642196,-0.31081871112324294,0.20309856031239032
1747237112041837000,8.301837158203124,0.05537058956623077,-0.19314649061858652,0.1261708034545183
1747237112051868000,8.311867919921875,0.11125555839538574,-0.09552161736451088,0.11791150915324687
1747237112061899000,8.32189892578125,0.1344330203652382,-0.06050795245468616,0.09646130936741829
1747237112071930000,8.33193017578125,0.10871581078469753,0.008376783201098442,0.08115501916408538
1747237112081961200,8.341961181640626,0.05087094005942344,0.0483208171851933,0.044859716945886606
1747237112091992000,8.351991943359375,-0.046047465425729746,0.08133432125374675,0.0016658873856067657
1747237112102023200,8.362023193359375,-0.11819441774785518,0.11727737596817314,-0.01806172639131546
1747237112112054000,8.372053955078124,-0.15154139155447482,0.13386303845755756,-0.02888940987586975
1747237112122085000,8.382085205078125,-0.17254150948524474,0.13985847948007285,-0.08358370761573314
1747237112132116000,8.392115966796876,-0.19429273804426192,0.1318840665347874,-0.09119944331645966
1747237112142146000,8.40214599609375,-0.18170739723742008,0.12428762005642056,-0.1272691200852394
1747237112152177200,8.41217724609375,-0.19191431847512722,0.13361439745873213,-0.1454465818107128
1747237112162208000,8.4222080078125,-0.1771884585082531,0.12829685569778085,-0.13008359298408032
1747237112172239000,8.432239013671875,-0.16525661317408083,0.11447072104960679,-0.1226379531532526
1747237112182270000,8.44227001953125,-0.14951836129426954,0.0925141791768372,-0.1399655200511217
1747237112192301000,8.452301025390625,-0.12911036403775214,0.04773337268605828,-0.12075579266846179
1747237112202332000,8.462331787109376,-0.11785013435482979,0.05773074282631278,-0.11624328368008136
1747237112212363000,8.472363037109375,-0.11678513547182083,0.03196151079759001,-0.1185462999254465
1747237112222394000,8.48239404296875,-0.1462485458433628,0.035144086356461046,-0.08364508241415024
1747237112232425000,8.492425048828125,-0.13697978223860263,0.025711948883533477,-0.03672375676333904
1747237112242456000,8.5024560546875,-0.14427578446567058,0.013515315133333206,0.036544308543205256
1747237112252487000,8.51248681640625,-0.14098609527051448,0.032941607876122,0.11192542048096656
1747237112262518300,8.522518310546875,-0.11536240919232368,0.07601531818807125,0.16053192273974418
1747237112272549000,8.532549072265626,-0.08940729920268058,0.1390852300852537,0.1928688427209854
1747237112282579000,8.542578857421875,-0.03840601076185703,0.18622633596658705,0.24539748685956
1747237112292610000,8.552610107421875,-0.04886544545590877,0.22448782369121908,0.24652795219421386
1747237112302641200,8.56264111328125,-0.030192893689870832,0.23950039164498446,0.2577466808229685
1747237112312671700,8.572671630859375,-0.04054010018110275,0.2784611136801541,0.20256430730521677
1747237112322702600,8.58270263671875,-0.06152326697707176,0.280098651754111,0.1456207693338394
1747237112332733700,8.592733642578125,-0.05049509248435497,0.2614164553768933,0.07120470303595065
1747237112342764500,8.6027646484375,-0.04129822507202625,0.23116437884569166,0.046460722401738166
1747237112352795600,8.612795654296875,-0.1050397526204586,0.19904256291985511,-0.03884849383234978
1747237112362826500,8.622826416015625,-0.15463351235091685,0.17689926630333064,-0.15200550193488596
1747237112372857600,8.632857666015624,-0.1823550474911928,0.14166151031404733,-0.27706045310199257
1747237112382888400,8.642888427734375,-0.17909516891241073,0.13105404545143245,-0.33755554607510563
1747237112392919600,8.65291943359375,-0.15607611237466334,0.14174699664041399,-0.3395207086682319
1747237112402950400,8.662950439453125,-0.11255728864371776,0.18158377085775135,-0.2748275794833898
1747237112412980500,8.67298046875,-0.08602759363651274,0.17639445858635008,-0.1798410188436508
1747237112423011600,8.683011474609375,-0.07992343154251574,0.18695201989263294,-0.10973755504786968
1747237112433042400,8.69304248046875,-0.0492477227717638,0.17460830582194029,-0.011075520765781402
1747237112443073500,8.703073486328124,-0.06853928321897983,0.16536884137690067,0.07493979791104793
1747237112453104400,8.7131044921875,-0.051937107986211775,0.1470223066948354,0.11961305237412452
1747237112463135500,8.723135498046876,0.0009703063368797302,0.11056662628315389,0.1428548117518425
1747237112473166600,8.73316650390625,0.24230536606311798,0.14819580745361743,0.37945992034673687
1747237112483197400,8.743197509765626,0.29695640918314453,0.18495375874750314,0.5587602564424275
1747237112493228800,8.753228759765625,-0.012991583520174026,0.11575286981463431,0.7222679801225662
1747237112503259600,8.763259765625,-0.320877967518568,0.03148023008666932,0.7448141584515571
1747237112513290800,8.773290771484374,-0.45327217553257937,0.01491656023338437,0.8809604124754666
1747237112523321600,8.783321533203125,-0.6005436346828937,0.024489640546962618,0.9018915568232536
1747237112533352700,8.793352783203124,-0.8189350411951541,-0.01466981893070042,0.7664414683699607
1747237112543383600,8.803383544921875,-0.9896686244755982,-0.05523666098825633,0.3747399060875177
1747237112553413600,8.81341357421875,-0.6777946321457624,0.04326842916645109,0.14970657734274864
1747237112563444700,8.82344482421875,-0.27528584464490413,0.14912402821443974,-0.32244156357347964
1747237112573475600,8.8334755859375,0.01424187584221363,0.11158106402270496,-1.0434861393809318
1747237112583506700,8.843506591796874,0.3494692712306976,-0.02048281605839729,-1.8380115464627742
1747237112593537500,8.85353759765625,0.4981611185729503,-0.3826706990867853,-2.3493887049615383
1747237112603568600,8.863568603515626,0.42617432524859905,-0.8358060964971781,-2.4869828197062014
1747237112613599500,8.873599609375,0.37719139089286324,-1.229068916746974,-2.2685160098701713
1747237112623630600,8.883630615234376,0.2840034041076898,-1.3552616397723556,-1.7915987548559904
1747237112633661400,8.893661376953125,0.10939034904539585,-1.1602910024665296,-1.2759089938551187
1747237112643692500,8.903692626953125,0.009252981513738632,-0.7587174499891698,-0.7488175488740205
1747237112653723400,8.913723388671874,0.05282265864908695,-0.3709236357349902,-0.11899755082428455
1747237112663754500,8.92375439453125,0.1274655194401741,-0.06252301860414446,0.3986480204194784
1747237112673785300,8.933785400390626,0.18289748380482196,0.10733195521086454,0.7266115622848272
1747237112683816700,8.943816650390625,0.2504904260843992,0.13047865671627223,0.9649287354946136
1747237112693847600,8.95384765625,0.3280821998089552,0.03245207079350948,1.1797025360316038
1747237112703877400,8.96387744140625,0.3364934698015451,-0.09778101366385816,1.195817804530263
1747237112713908700,8.97390869140625,0.3411702294409275,-0.2277547165326774,1.1207757152885198
1747237112723939600,8.983939697265624,0.33961072503924367,-0.29252785215117033,0.9158575383335351
1747237112733970700,8.993970703125,0.2664467046290636,-0.31086342704780395,0.7089566631287336
1747237112744001500,9.00400146484375,0.14054127411246298,-0.27583573361262675,0.5143383463919162
1747237112754032600,9.01403271484375,0.0004436521142721176,-0.17684059491865337,0.27280045756995674
1747237112764063500,9.0240634765625,-0.1368459267258644,-0.06258315129354595,0.07569850732386112
1747237112774094600,9.034094482421875,-0.24697160430848597,0.06740121909976005,-0.12635726593732832
1747237112784125400,9.04412548828125,-0.298104410174489,0.17513525230549276,-0.2780050404757261
1747237112794156500,9.054156494140624,-0.29282559298872946,0.274088743814826,-0.42257016327679153
1747237112804187600,9.064187744140625,-0.23482465491890905,0.28863742058388886,-0.5121656785279513
1747237112814218500,9.074218505859376,-0.17275485997498036,0.2891882593996823,-0.5390653758913279
1747237112824249600,9.08424951171875,-0.08984978227317332,0.2519328069124371,-0.41334348524808884
1747237112834280400,9.094280517578126,-0.06277531286478043,0.21326047336459159,-0.1897802290558815
1747237112844311600,9.1043115234375,-0.02173252385854721,0.1787939209435135,0.06863514480888844
1747237112854341600,9.114341552734375,-0.010415011030435562,0.14135178677774965,0.2766238152503967
1747237112864372500,9.12437255859375,0.0039174657046794886,0.13071692245155572,0.39953064847290515
1747237112874403600,9.134403564453125,-0.0027881694138050077,0.14258257068172098,0.38685061511993407
1747237112884434400,9.144434326171876,0.02370411619246006,0.16036087702177465,0.30270342840254305
1747237112894465500,9.154465576171875,0.04214169015884399,0.19473734000660478,0.1406628546655178
1747237112904496600,9.16449658203125,0.0024818799436092374,0.17705993675775825,-0.09960603713393211
1747237112914527700,9.17452783203125,-0.02563596103787422,0.10897796885222195,-0.23025135565400123
1747237112924558600,9.18455859375,-0.030209260302782058,0.023307883416488765,-0.31051147180497646
1747237112934589700,9.194589599609374,-0.047802200138568875,-0.00790171303525567,-0.2888233716100454
1747237112944620500,9.20462060546875,-0.059739306169748305,-0.00042860067561268804,-0.17633622559309003
1747237112954651600,9.214651611328126,-0.12839490924477576,0.036741073224321005,-0.04323182348310947
1747237112964682500,9.2246826171875,-0.1698679063618183,0.07394150758869945,0.10022153868377208
1747237112974713600,9.234713623046876,-0.20154607017338275,0.09715184891484677,0.17675532778799533
1747237112984744400,9.244744384765625,-0.206375974547863,0.08869381717108189,0.22875731770396232
1747237112994775600,9.254775634765625,-0.1722866579413414,0.07322714877426624,0.25682196719348427
1747237113004806400,9.264806396484374,-0.12281973946094513,0.07433226047195493,0.24022329909205437
1747237113014836500,9.27483642578125,-0.07995908737778663,0.016427110926806925,0.2458160045325756
1747237113024867600,9.28486767578125,-0.05447802464067936,-0.030445407146215436,0.1669225005596876
1747237113034898400,9.2948984375,-0.025559973192214966,-0.059497898629307745,0.026066169148683545
1747237113044929500,9.304929443359375,-0.029829321074485778,-0.07785415098778903,-0.1908732849895954
1747237113054960400,9.31496044921875,-0.026139818906784056,-0.13974515529870987,-0.3828589151352644
1747237113064991500,9.324991455078125,0.004725274956226349,-0.2125125045415014,-0.45202831295132634
1747237113075022300,9.335022216796874,0.041059740141034126,-0.22547391211912035,-0.4032838635265827
1747237113085053400,9.345053466796875,0.09668635029494761,-0.19461817060634493,-0.2629857505202293
1747237113095084500,9.35508447265625,0.11339841564297676,-0.1207761048041284,-0.0758165807455778
1747237113105115600,9.36511572265625,0.13988602507412431,-0.03803673905804753,0.09681436058878898
1747237113115146800,9.375146728515626,0.15583704292178152,-0.01449132055863738,0.20137422073781489
1747237113125177600,9.385177490234375,0.150147891369462,-0.04570099007561802,0.26323651041090484
1747237113135208700,9.395208740234375,0.16366496006846426,-0.08687865750789642,0.3051139966756105
1747237113145239600,9.405239501953124,0.19410101486444473,-0.098490038716048,0.33906244350671766
1747237113155270700,9.415270751953125,0.22664134846329687,-0.07618088401332497,0.3365209423303604
1747237113165301500,9.425301513671876,0.2249105791479349,-0.0576208527110517,0.3240343857228756
1747237113175331600,9.43533154296875,0.2105108823955059,-0.0070960957407951355,0.3344564110159874
1747237113185362700,9.44536279296875,0.21804770764112472,0.028520868824422358,0.33853111310899253
1747237113195393500,9.4553935546875,0.2572784787893295,0.019143676409125326,0.36073768422007557
1747237113205424600,9.465424560546875,0.23859365206360816,0.031188188337534666,0.41876843290627
1747237113215455500,9.47545556640625,0.13526830214560032,0.07835486705154181,0.5016600666046143
1747237113225486600,9.485486572265625,0.07538461906909942,0.13575681631490588,0.5438181233763695
1747237113235517400,9.495517333984376,0.04290566026866436,0.14155921898335216,0.4899187754064798
1747237113245548500,9.505548583984375,0.004953238493204117,0.1299640582576394,0.37897827430963515
1747237113255579400,9.515579345703125,0.026239187628030774,0.09785904733613132,0.22581424998939037
1747237113265610500,9.525610595703125,0.014947978284955024,0.055589346883445974,0.03558043194711208
1747237113275641300,9.535641357421875,-0.060576341515779494,0.028250381319969892,-0.2785194197386503
1747237113285672700,9.545672607421874,-0.10909925714433193,-0.0602962094001472,-0.5645487767159938
1747237113295703600,9.55570361328125,-0.1306944183588028,-0.20538126442208884,-0.7059206564337015
1747237113305734000,9.56573388671875,-0.16648995436131953,-0.3457382680088281,-0.7722855182230473
1747237113315765000,9.575764892578125,-0.19470657954216003,-0.37666298310458657,-0.7400362765252589
1747237113325795800,9.5857958984375,-0.27189503316283226,-0.2731407954402268,-0.6522399196505546
1747237113335827000,9.595826904296874,-0.32410978904664517,-0.09408566627725959,-0.46959144217073917
1747237113345857000,9.60585693359375,-0.3376601754933595,0.04405819130465388,-0.2787503058850765
1747237113355887900,9.615887939453126,-0.29855975272655483,0.142816525568068,-0.1686614531815052
1747237113365919000,9.6259189453125,-0.26474399236440654,0.1993437378235161,-0.06399754813611506
1747237113375949800,9.63594970703125,-0.23334347645044326,0.14770342082679272,-0.019101006311178205
1747237113385981000,9.64598095703125,-0.21107202340960501,0.05707768574506044,-0.06475216589570044
1747237113396011800,9.65601171875,-0.16927753925323485,-0.04293108697086572,-0.06999649628996849
1747237113406043100,9.666043212890624,-0.10693535710871219,-0.114225075725466,-0.0744616590052843
1747237113416074000,9.676073974609375,-0.05234510426521301,-0.1555357218876481,-0.038898178192973136
1747237113426105000,9.68610498046875,-0.027197803527116773,-0.16117913460209965,-0.020191139635443688
1747237113436136000,9.696135986328125,-0.003091536274552345,-0.09719488433897494,0.014606032979488372
1747237113446167000,9.7061669921875,0.012858312529325485,-0.034597266128659244,-0.01922550947368145
1747237113456198000,9.716197998046875,-0.024288053560256956,0.012553630494326352,-0.05062193373441696
1747237113466229000,9.72622900390625,-0.06257891350984573,0.0341723187148571,-0.08483692254722118
1747237113476259800,9.736259765625,-0.09939151760041713,0.02169511445760727,-0.12981471291482446
1747237113486291000,9.746291015625,-0.10585516065657138,0.005551496647298336,-0.12906652489602566
1747237113496321800,9.75632177734375,-0.11791384724080561,0.020181348893791435,-0.09463760107159613
1747237113506353000,9.766352783203125,-0.09703530986309052,0.03853767431750894,-0.029863807865977286
1747237113516384000,9.776384033203126,-0.05753390507996082,0.009626198740303515,-0.01823591391444206
1747237113526413800,9.786413818359375,-0.015642974811792373,0.0023684826970100403,-0.0034130233138799666
1747237113536445000,9.79644482421875,0.0015799626678228377,0.02910875171497464,0.04265840750932693
1747237113546475800,9.806475830078124,0.012422259199619293,0.038015696270018814,0.035978491353988645
1747237113556507000,9.8165068359375,0.004126724541187286,0.019825375062972307,0.006607435441017151
1747237113566538000,9.8265380859375,0.029565701702237126,-0.00806771725192666,0.00634556963443756
1747237113576568800,9.83656884765625,0.06112228496074676,-0.03895619199052453,0.023976503393054006
1747237113586600000,9.846599853515626,0.04762392096221447,-0.016519173124432563,0.037599370554089545
1747237113596631000,9.856631103515625,0.03931318873465061,-0.028254472973197695,0.05535656104087829
1747237113606662100,9.866662109375,0.030333178943395614,-0.028731150574237106,0.10769523556530475
1747237113616693000,9.87669287109375,0.06807049666345119,0.016354484082013367,0.14293898290395735
1747237113626724000,9.88672412109375,0.0852455033481121,0.05517784347310662,0.16908055537641048
1747237113636755000,9.8967548828125,0.1206377192467451,0.08184928503856062,0.19021452881991863
1747237113646786000,9.9067861328125,0.12108137136101722,0.09741992526650428,0.1806383067011833
1747237113656817000,9.91681689453125,0.07927519676685332,0.10120499676316976,0.1736854188233614
1747237113666848000,9.926847900390625,0.04633738828301429,0.07066679676696658,0.12216215233504771
1747237113676878800,9.93687890625,0.05783785646259784,0.05105798706412315,0.11602701058089733
1747237113686910000,9.946909912109374,0.042591772013902664,0.023442981038242577,0.08963818534910678
1747237113696940800,9.95694091796875,0.01168342353105545,0.025110037467628715,0.08860825777947902
1747237113706972000,9.966971923828124,-0.03791618141829967,0.01175897298529744,0.08250994090437888
1747237113717002000,9.977001953125,-0.07734744357466697,0.016826485507935286,0.048618777218461036
1747237113727032800,9.98703271484375,-0.10238719228506088,0.06171688985303044,0.006692191115021705
1747237113737064000,9.99706396484375,-0.09999182158112525,0.043324470202624796,-0.0023725743502378462
1747237113747094800,10.0070947265625,-0.047668929147720335,0.049574616638571024,0.046318099060654636
1747237113757126000,10.0171259765625,-0.0089057755112648,0.055013008300215,0.09160334794223308
1747237113767156700,10.02715673828125,0.04873334350883961,0.06503025218471885,0.13814122723340988
1747237113777187800,10.037187744140626,0.022043489503860474,0.08921718345806003,0.10329203217029571
1747237113787219000,10.047218994140625,0.01663257037103176,0.07479834361374378,0.06836918734908104
1747237113797250000,10.05725,0.039159459477663035,0.07311857383325696,0.12229250071644782
1747237113807281000,10.067281005859375,0.06228899065256118,0.07733633765876292,0.10673194349110125
1747237113817312000,10.07731201171875,0.10925532448887824,0.044711102255433795,0.0815466488301754
1747237113827343000,10.087343017578124,0.13580080158710478,0.008665463949367404,0.05334288313090801
1747237113837374000,10.0973740234375,0.12272387787103652,0.01245499242544174,0.005226794737577438
1747237113847405000,10.107405029296874,0.09516776242554187,0.000045300446450710294,0.017174422162771225
1747237113857436000,10.117435791015625,0.056841246640682214,-0.05576821058169007,0.04509294117987156
1747237113867467000,10.127467041015626,0.012547931405901908,-0.07725903463885188,0.1297825642108917
1747237113877497900,10.137497802734375,0.022971125742793082,-0.12987922951839864,0.20282325050234792
1747237113887529000,10.147529052734376,0.046292380097508426,-0.1282445409886539,0.2362602406799793
1747237113897559800,10.157559814453125,0.055257192319631575,-0.15816015210710466,0.19298750066459178
1747237113907591000,10.1675908203125,0.07610065838396549,-0.15462869004532695,0.10203647915124893
1747237113917621000,10.17762109375,0.020310382100939748,-0.15299166342802345,-0.019842764589190483
1747237113927651800,10.18765185546875,-0.05747603741288185,-0.16553681835494935,-0.13518822264671324
1747237113937683000,10.197682861328126,-0.0760737703770399,-0.1674786000724882,-0.22521920670568943
1747237113947713800,10.2077138671875,-0.09936579863727092,-0.14525237441286443,-0.2755523866266012
1747237113957745000,10.217744873046875,-0.125369423943758,-0.12256992941834031,-0.28053894286751746
1747237113967775700,10.227775634765624,-0.12859130859971046,-0.09268690539523959,-0.30831893019676204
1747237113977807000,10.23780712890625,-0.1184896013021469,-0.06656089581809937,-0.2684673968017101
1747237113987838000,10.247837890625,-0.1323848556637764,-0.04059701800011098,-0.26722061161100863
1747237113997869000,10.257869140625,-0.11808861928582191,-0.055420054731145495,-0.23152152172029017
1747237114007900000,10.26789990234375,-0.14069091171622275,-0.09098550830483436,-0.24159926362037656
1747237114017931000,10.277930908203125,-0.11799509578347206,-0.08995324264764785,-0.23072131125330925
1747237114027961900,10.2879619140625,-0.10214520022273063,-0.0953103857666254,-0.2013216137677431
1747237114037993000,10.297992919921874,-0.08666121536493301,-0.06399272583052516,-0.1472153450489044
1747237114048024000,10.308024169921875,-0.07920739222764968,-0.02441620998457074,-0.09214987590909003
1747237114058055000,10.318054931640624,-0.044617140361666675,-0.0009124386698007583,-0.019847440764307975
1747237114068086000,10.3280859375,-0.021366613155603408,0.022529227194190024,0.01587912165522575
1747237114078116900,10.338116943359376,-0.013507131826877593,0.01573598685748875,0.007356207981705666
1747237114088148000,10.34814794921875,0.0014747487276792525,0.009548238133266568,-0.04674012386500835
1747237114098178800,10.3581787109375,-0.01849777972102165,-0.006788710292056203,-0.1026519807010889
1747237114108210000,10.3682099609375,-0.057877019429206845,-0.02133665640875697,-0.12037936057150363
1747237114118240800,10.37824072265625,-0.0830932937502861,-0.005602861508354544,-0.0992927334010601
1747237114128272000,10.38827197265625,-0.12567688245773315,0.033625717682763935,-0.09261573985517024
1747237114138302000,10.398302001953125,-0.17047171747386455,0.06170483408905565,-0.0374228449434042
1747237114148332800,10.408332763671876,-0.17534253838062286,0.09096351566873491,0.00019055413603782652
1747237114158364000,10.418364013671875,-0.17236381483078003,0.10617847432680427,0.006028174248337745
1747237114168395000,10.42839501953125,-0.20813421639204024,0.09821838216781616,-0.02526303607225418
1747237114178426000,10.438426025390624,-0.1886164459735155,0.04982734929062426,-0.09715805945992469
1747237114188457000,10.44845703125,-0.13714403288960456,0.04662051607333123,-0.1376344467550516
1747237114198488000,10.458488037109374,-0.07062719540894032,0.0215819364067167,-0.11903671379089355
1747237114208519000,10.468518798828125,-0.011627309429645538,0.011794336559623479,-0.11992635610699653
1747237114218550000,10.478550048828126,0.023299627044796944,0.020057941709831356,-0.05615677150785923
1747237114228580900,10.488580810546875,0.06408230381011963,0.016441066386923192,0.04476794700920581
1747237114238612000,10.498612060546876,0.06949731459617614,0.014676760128140448,0.14420388827323913
1747237114248642800,10.508642822265625,0.061060910162329674,0.016848843470215796,0.23075053734779358
1747237114258674000,10.518673828125,0.08437339668869971,0.00597176788598299,0.26403146018087864
1747237114268704800,10.528704833984374,0.13148118482232093,-0.019048545471578835,0.2752045961022377
1747237114278736000,10.53873583984375,0.20109657284021376,-0.03843121826834976,0.24678455730378626
1747237114288767000,10.54876708984375,0.21868659006655214,-0.08225881568752229,0.2819756976723671
1747237114298797800,10.5587978515625,0.23381226300597188,-0.11288717818520963,0.34385961465537546
1747237114308829200,10.5688291015625,0.2386561959058046,-0.06635879737474024,0.3545610414117574
1747237114318860300,10.5788603515625,0.20313129353821277,0.004280892189592123,0.3315092516481876
1747237114328891400,10.588891357421875,0.1442705237686634,0.029774814408272503,0.2787777784138918
1747237114338922200,10.598922119140624,0.09723696991503238,0.014578779646381735,0.2416945406883955
1747237114348953300,10.608953369140625,0.13365093007683754,0.004932049574702978,0.24730887343883512
1747237114358984200,10.618984130859374,0.16623568733930585,-0.03875394741669297,0.1918313163667917
1747237114369014300,10.62901416015625,0.16896657360792158,-0.09773629773929715,0.15163959123194218
1747237114379045400,10.63904541015625,0.15028350044786928,-0.13151939794085918,0.09626198740303515
1747237114389076200,10.649076171875,0.09770984812378883,-0.11818068148344754,0.05699731398522854
1747237114399107300,10.659107421875,0.06104454354941845,-0.09806874456405638,0.07722703206539154
1747237114409138200,10.66913818359375,0.03378127357065677,-0.04614398460276425,0.05554419256746768
1747237114419169300,10.679169189453125,0.027412907582521438,-0.016203239043056965,0.07421732885539531
1747237114429200100,10.6892001953125,0.004108604362607002,0.03025989451147616,0.06323591611385346
1747237114439231200,10.699231201171875,0.009172317492961882,0.0203350050855428,0.0019511340677738189
1747237114449262000,10.709261962890626,-0.013605916026234626,0.016134923047199844,-0.048291444960236546
1747237114459293200,10.719293212890625,-0.07686404397189617,-0.021074498341232536,-0.12421090155839919
1747237114469324000,10.729323974609375,-0.10073825603425503,-0.04988075997829437,-0.16154899082779883
1747237114479355100,10.739355224609374,-0.10131810174882411,-0.07831694619394838,-0.16723288168311118
1747237114489386000,10.749385986328125,-0.1067085626155138,-0.060863268698379394,-0.1786789893269539
1747237114499417000,10.7594169921875,-0.11738953110575676,-0.050643561044335365,-0.18701251790821552
1747237114509448200,10.7694482421875,-0.06556348227858542,-0.04277596947439015,-0.09912789822816848
1747237114519479300,10.779479248046876,-0.046668227672576904,0.004458879105001688,-0.023656185397505757
1747237114529510100,10.78951025390625,-0.0763788908034563,0.042902956854924554,0.012394786670804023
1747237114539541200,10.799541259765626,-0.062415831902623176,0.06510273289903998,0.028328268861770627
1747237114549572400,10.809572265625,-0.034734044250845905,0.040605128241330384,0.011326280656456947
1747237114559603200,10.819603271484375,-0.04210603432357311,0.018960721057653427,-0.01516249781847
1747237114569634300,10.82963427734375,-0.05148585708737373,-0.010229206134751439,-0.0963303764641285
1747237114579665200,10.8396650390625,-0.01535772812962532,-0.05946823414340615,-0.12119301504194736
1747237114589696300,10.8496962890625,-0.017938976794481275,-0.07152282907441258,-0.12644786683022974
1747237114599727000,10.85972705078125,-0.05902735850811004,-0.09340645184144378,-0.08685352306663989
1747237114609758200,10.86975830078125,-0.110803722974658,-0.06907762787938118,-0.04765665418803692
1747237114619789000,10.8797890625,-0.13594284040629864,-0.009238879923149942,-0.04656593634188175
1747237114629820200,10.889820068359375,-0.14889175382852554,0.03163447080031037,0.005807224974036216
1747237114639850200,10.899850341796874,-0.12994564581811427,0.05055485984757542,0.025150807869434355
1747237114649881000,10.909881103515625,-0.12082184364199637,0.08625387667305767,0.009573884031176566
1747237114659912200,10.919912109375,-0.10080372248589992,0.08006167096942662,-0.0716384182780981
1747237114669943000,10.929943115234375,-0.10465513721704482,0.032544352186843754,-0.12876958777606487
1747237114679974100,10.93997412109375,-0.08717676367163657,-0.003910597572475672,-0.1780728401273489
1747237114690005200,10.950005126953124,-0.07896423112154007,-0.034952947698533535,-0.2769540701180696
1747237114700036400,10.960036376953125,-0.09089140028059482,-0.028377003374323247,-0.30923136886656283
1747237114710067200,10.970067138671874,-0.08714636853337288,-0.00966748059876263,-0.2369797871261835
1747237114720098300,10.980098388671875,-0.08370119651556014,0.005572539435327053,-0.13058277467787266
1747237114730129200,10.990129150390626,-0.08111644071936606,0.03525689908117056,-0.006934183177351951
1747237114740160300,11.00016015625,-0.08959960690438747,0.05880487486384808,0.11001228033602237
1747237114750191000,11.010191162109376,-0.08022270675003527,0.06886471578106283,0.1962152305394411
1747237114760222200,11.02022216796875,-0.05024608615934849,0.07130567919239401,0.19658874002695081
1747237114770253000,11.030253173828125,-0.0211795661509037,0.049199426650628444,0.13552899890840053
1747237114780284200,11.0402841796875,0.000488075777888298,0.024681217596307394,0.057201312124729155
1747237114790315300,11.050315185546875,0.017474866414070128,0.00720211339853704,-0.009869067585468292
1747237114800346000,11.06034619140625,0.005669277808070182,-0.02342003855407238,-0.0990922423928976
1747237114810377200,11.070377197265625,0.010653495961427688,-0.04318696142807603,-0.1398211431443691
1747237114820408000,11.080407958984376,-0.004569792133569717,-0.04688925001211464,-0.15237959594428538
1747237114830439200,11.090439208984375,-0.024269933381676673,-0.05367131136767566,-0.13527999258339404
1747237114840470000,11.100469970703125,-0.03464168979227543,-0.036916283660754556,-0.07517360666692256
1747237114850501400,11.11050146484375,-0.008976502659916877,-0.020994199646636843,0.01899403880536556
1747237114860532200,11.1205322265625,-0.012100187638401984,0.011522972272336483,0.091689272660017
1747237114870563300,11.130563232421874,-0.0038473230779170987,0.022824118487536908,0.12962415877878666
1747237114880594200,11.14059423828125,-0.001972176855802536,0.048855216322839255,0.193112003827095
1747237114890625300,11.150625244140626,0.018564999738335607,0.053804143967106935,0.13044775012135504
1747237114900656000,11.16065625,0.028109657675027846,0.016077055380120872,0.04316986416280269
1747237114910687200,11.170687255859375,0.05156885919570923,-0.05480579529032111,-0.033090368697047234
1747237114920718000,11.180718017578124,0.0808843855291605,-0.09846797301471233,-0.10045359387397766
1747237114930749200,11.190749267578125,0.045211599123477934,-0.08208565107770263,-0.10653788222372532
1747237114940780300,11.2007802734375,0.031979192584753034,-0.03326777109056711,-0.08030687790215014
1747237114950810000,11.21081005859375,0.024317864176630972,0.002652633400633931,-0.04023497975468635
1747237114960841200,11.22084130859375,-0.01028174003958702,0.021559213118255136,-0.006288286489248275
1747237114970872000,11.2308720703125,-0.04038929353356361,0.018520356879010796,0.0025695582270622254
1747237114980903200,11.240903076171875,-0.051686932617425914,-0.014880977463349699,-0.029397359398007392
1747237114990934000,11.25093408203125,-0.07394552617669105,-0.017314999677240848,-0.057935471618175506
1747237115000965000,11.260965087890625,-0.049282209563255304,-0.025118147708848116,-0.1153004498720169
1747237115010996200,11.270996337890624,-0.03176058139801025,-0.022659648640826344,-0.14913549945652485
1747237115021027000,11.281027099609375,0.015519056171178817,-0.02906878503076732,-0.18202245453596114
1747237115031058200,11.29105810546875,0.02507248193621635,-0.030299495869502424,-0.11892039393484592
1747237115041089300,11.30108935546875,0.032177930027246476,0.006292962664365768,0.0011678747355937957
1747237115051120400,11.311120361328125,0.00940203459560871,0.04270305036865175,0.08276829957962036
1747237115061151200,11.321151123046874,0.0030167174726724623,0.03992321039177477,0.11694120281636715
1747237115071182300,11.331182373046875,0.012283142989873885,0.066314008384943,0.17605565508604049
1747237115081213200,11.341213134765624,0.023605331993103027,0.06436762355752289,0.28334873959124085
1747237115091244300,11.351244384765625,0.05053893162608147,0.07168876022584736,0.3651671911001205
1747237115101275100,11.361275146484376,0.08533318163156509,0.05388765753209591,0.4219084844976663
1747237115111306200,11.37130615234375,0.09536533082425594,0.05244724946543574,0.465977343326807
1747237115121337000,11.381337158203126,0.06973755309283733,0.04062945896498859,0.41016485521197316
1747237115131368200,11.3913681640625,0.07782792056798934,0.029875498303771016,0.288850259616971
1747237115141399000,11.40139892578125,0.09836977333724498,-0.006523556549847126,0.19660569116175172
1747237115151430100,11.41143017578125,0.09448854798972606,-0.000298544555157423,0.1359668058037758
1747237115161461000,11.4214609375,0.1093313123345375,0.0030703473560512065,0.09365209716558456
1747237115171492000,11.4314921875,0.1003378585398197,-0.00020903964079916476,0.10133856001496315
1747237115181523200,11.441523193359375,0.046048049947619435,0.002496858317032456,0.02160100643336773
1747237115191554000,11.451553955078126,-0.023198504757881162,-0.08283566572740673,-0.16428513779342174
1747237115201585400,11.46158544921875,-0.06064882223010063,-0.21222747705504297,-0.35866496959924693
1747237115211616300,11.4716162109375,0.01262801090478897,-0.27408830542340873,-0.37993162951171394
1747237115221647400,11.4816474609375,0.025135610300302504,-0.25446020649820567,-0.33259529331922527
1747237115231678200,11.49167822265625,0.003280336844921112,-0.21251235841102897,-0.29703181250691413
1747237115241709300,11.501709228515624,-0.005821253499388695,-0.10582988008484244,-0.18485095596015452
1747237115251740200,11.511740234375,-0.025396891584992407,-0.03295841288045048,-0.042594694623351095
1747237115261771300,11.521771240234376,-0.043426469272375104,-0.006614595834165811,0.0654383945941925
1747237115271802000,11.531802001953125,-0.06648527329862117,0.012231339737400412,0.15348317327201366
1747237115281833200,11.541833251953125,-0.07022153721749783,0.004062134872376918,0.19797230333983898
1747237115291864000,11.551864013671874,-0.07980185098946094,0.02424574878849089,0.18587328474521636
1747237115301895200,11.561895263671875,-0.07748422169685364,0.057801396909728645,0.1852349868416786
1747237115311925800,11.57192578125,-0.08302139755785465,0.09688158060610294,0.1027174471527338
1747237115321956600,11.58195654296875,-0.12010054363012314,0.06790040079355239,0.004437105664610862
1747237115331987700,11.59198779296875,-0.11082768837213515,0.028315555510669946,-0.10393091459572315
1747237115342018800,11.602018798828125,-0.07800970687568187,-0.0323347280241549,-0.1807739157795906
1747237115352050000,11.6120498046875,-0.03596270926296711,-0.05832059847824275,-0.20825579694509505
1747237115362080800,11.622080810546874,-0.00850537801682949,-0.06306552798300981,-0.13193828094005583
1747237115372112000,11.63211181640625,-0.003827449333667755,-0.019625395511463282,-0.0585977349191904
1747237115382142700,11.642142822265624,0.002955342674255371,0.006555851384252309,0.013712299010157584
1747237115392173800,11.652173828125,-0.002959434327483177,0.04357186909243464,0.05490706370770931
1747237115402204700,11.66220458984375,-0.010346037447452544,0.05366773117110133,0.07218202363550663
1747237115412235800,11.67223583984375,-0.028953122761845588,0.038042584276944395,0.06459902116060257
1747237115422266600,11.6822666015625,-0.020703765332698822,0.028334479406848547,0.04093231436908245
1747237115432297700,11.692297607421875,0.017697569254040715,-0.007516001653298735,0.041834231644868845
1747237115442328600,11.70232861328125,0.05349485882222652,-0.00787073337510228,0.031335049462318416
1747237115452359700,11.712359619140624,0.07298106505870819,-0.01179440962485969,0.06358019950687885
1747237115462390800,11.722390869140625,0.08319967673420905,0.02229271502457559,0.08279168045520782
1747237115472421600,11.732421630859376,0.07123685173988342,0.027444617895036934,0.07913374246954917
1747237115482452700,11.74245263671875,0.04149754703640938,0.04215126170478761,0.08925356994569301
1747237115492483600,11.752483642578126,0.022699907585978507,0.038792452796176075,0.10070552280843258
1747237115502515000,11.762514892578125,-0.016916063487529755,0.0053021980613470075,0.12026128714978694
1747237115512545800,11.7725458984375,-0.0053583121627569195,-0.02514488958530128,0.112202483856678
1747237115522577000,11.782576904296874,-0.0013034838140010834,-0.04766724864728748,0.07077975562214851
1747237115532607700,11.792607666015625,0.018110826230049133,-0.06215995744541287,0.013783026158809662
1747237115542638800,11.802638916015624,0.02856090857386589,-0.06361527082026004,-0.01213175182044506
1747237115552669700,11.812669677734375,0.028618191719055174,-0.042573432639613745,-0.023523498928546903
1747237115562700800,11.82270068359375,0.013511808001995087,-0.017960092647746204,-0.05744973392784595
1747237115572731600,11.832731689453125,0.00943126069009304,-0.00188910168223083,-0.03859247324466705
1747237115582762800,11.8427626953125,-0.01647884111404419,0.03170695151463151,-0.002214168918132782
1747237115592793600,11.852793701171874,-0.030329671812057493,0.020435762046277523,0.01685118155777454
1747237115602824700,11.86282470703125,-0.053362756875157354,0.011886983279138803,-0.005009937116503715
1747237115612855600,11.87285546875,-0.053368017572164535,-0.042480055267736315,-0.03428922309279442
1747237115622886700,11.88288671875,-0.022226444855332372,-0.06556092499531806,-0.07392682147622108
1747237115632917800,11.892917724609376,-0.02306055759191513,-0.046985476928204296,-0.09111819477379321
1747237115642948600,11.902948486328125,-0.03785071496665478,-0.03863901580013335,-0.09544073414802551
1747237115652979700,11.912979736328126,-0.020588029998540876,-0.01675605062022805,-0.09451134434342384
1747237115663010800,11.9230107421875,-0.05310030654668808,0.0010341653533279896,-0.0966916109919548
1747237115673042000,11.9330419921875,-0.09994915148317814,0.048587505297362804,-0.07954056970477104
1747237115683072800,11.94307275390625,-0.1338438223004341,0.05980228840336203,-0.07905132488310336
1747237115693103900,11.953103759765625,-0.14836042343080044,0.038822628738731144,-0.07384966458678245
1747237115703134700,11.963134765625,-0.11223638612627983,0.005220291931554675,-0.06841068840324878
1747237115713165800,11.973165771484375,-0.09796703775525092,-0.01896291301473975,-0.0649678544729948
1747237115723196700,11.98319677734375,-0.09487257887125014,-0.020051877295225857,-0.024808862563967703
1747237115733227800,11.993227783203125,-0.04534545463621616,-0.02219780328273773,-0.002291325807571411
1747237115743258600,12.003258544921875,-0.010409165811538695,0.00394866456054151,0.032306524842977524
1747237115753289700,12.013289794921874,0.021409867775440215,0.017453019908443092,0.011467150431871414
1747237115763320600,12.023320556640625,0.00168225399851799,0.005664528567716479,-0.033822774624824525
1747237115773351700,12.0333515625,-0.01242109015583992,-0.00400455946624279,-0.06515607052147387
1747237115783382500,12.043382568359375,-0.007886953857541084,-0.030928879814222453,-0.07831015112698078
1747237115793413600,12.05341357421875,-0.0013935001850128173,-0.04321472621783614,-0.07673544915616512
1747237115803444700,12.06344482421875,0.01632452733516693,-0.06562054622806608,-0.033142975667119025
1747237115813475600,12.0734755859375,0.045401568737626075,-0.06544321689978241,0.020865093374252318
1747237115823505700,12.083505615234374,0.06489537375867366,-0.05130114817023277,0.08436229077279567
1747237115833536500,12.09353662109375,0.08200257590413093,-0.005988865151256323,0.14401450318098066
1747237115843567600,12.103567626953126,0.07621288658678531,0.05321574961990118,0.1518652166813612
1747237115853598700,12.1135986328125,0.06638941170871257,0.05066672272421419,0.16781448096334933
1747237115863629800,12.1236298828125,0.058843818634748454,0.03593706336505711,0.15841186184585093
1747237115873661000,12.133660888671875,0.05242576828598976,0.01682582792080939,0.15567162322700023
1747237115883691800,12.14369189453125,0.06918225729763508,-0.020452201724424957,0.09908581265211104
1747237115893723000,12.153722900390624,0.07322773329615592,-0.015378624787181615,0.0699392131447792
1747237115903753700,12.163753662109375,0.052875850141048425,0.004033493299782276,0.07528174321651458
1747237115913784800,12.173784912109374,0.05232756860852241,0.011321750611811876,0.11495441291332244
1747237115923815700,12.183815673828125,0.06271919876337051,0.046907224060222505,0.15867548121809957
1747237115933846800,12.1938466796875,0.07920856127142906,0.04666961591206491,0.22272914345562456
1747237115943877600,12.203877685546875,0.0626408728301525,0.02834646210558712,0.2583212658405304
1747237115953908700,12.21390869140625,0.03267418911159038,0.01060308094844222,0.2550958740532398
1747237115963939600,12.223939697265624,0.00466506920158863,-0.0012551876928657293,0.2190595150321722
1747237115973970700,12.233970703125,0.003158171769976616,-0.010085267619416118,0.16208324383497238
1747237115984001500,12.24400146484375,0.009427169036865234,-0.023830811312049626,0.10060790765285492
1747237115994032600,12.25403271484375,0.027140520381927487,0.004576733331009745,0.03627952012717724
1747237116004063700,12.264063720703126,0.022657237488031386,0.039954774573817846,-0.03075111209452152
1747237116014094800,12.2740947265625,-0.011392331629991531,0.036012174427881835,-0.0741132839590311
1747237116024125700,12.284125732421876,-0.05618775116801262,0.035612142259627576,-0.09913666605651378
1747237116034156800,12.29415673828125,-0.11800444813370704,0.05611424754038453,-0.1258358724117279
1747237116044188000,12.30418798828125,-0.1761900951206684,0.05040324948243797,-0.1199444762855768
1747237116054218800,12.31421875,-0.18802081816792487,0.03875117093771696,-0.15784955178797244
1747237116064249900,12.324249755859375,-0.1095054998576641,-0.006444353833794593,-0.2073299142718315
1747237116074280700,12.33428076171875,-0.014168810606002807,-0.025171266135573387,-0.24519933393895624
1747237116084311800,12.344311767578125,0.06160919169485569,-0.0006214198339730501,-0.2103846256673336
1747237116094342700,12.3543427734375,0.08996551760733128,0.004349938837811351,-0.1480436125665903
1747237116104373800,12.364373779296875,0.11295008735358715,-0.042662133836373684,-0.0452741429656744
1747237116114404600,12.374404541015625,0.06352525444924831,-0.08408953824602067,0.04131459168493747
