time,seconds_elapsed,z,y,x
1747237103776374300,0.036374267578125,0.1916952282190323,0.16121023893356323,0.0379745252430439
1747237103786405400,0.0464052734375,0.16482201218605042,0.19966422021389008,0.033705394715070724
1747237103796436200,0.056436279296875,0.15734173357486725,0.18227830529212952,0.016981277614831924
1747237103806467300,0.06646728515625,0.16096974909305573,0.11825750768184662,0.004190381150692701
1747237103816497400,0.076497314453125,0.17437849938869476,0.04370897263288498,0.006068442482501268
1747237103826528300,0.0865283203125,0.18690109252929688,0.010631905868649483,0.05230942368507385
1747237103836559400,0.096559326171875,0.19592946767807007,0.04255255311727524,0.12373620271682739
1747237103846590200,0.106590087890625,0.19726696610450745,0.06630401313304901,0.19596223533153534
1747237103856621300,0.116621337890625,0.16575857996940613,0.09505949169397354,0.2499154955148697
1747237103866652200,0.126652099609375,0.09500370919704437,0.05960056930780411,0.24534070491790771
1747237103876683300,0.136683349609375,0.011087240651249886,-0.057693302631378174,0.18835625052452087
1747237103886714000,0.146714111328125,-0.04694230854511261,-0.2134981006383896,0.12274610996246338
1747237103896745200,0.1567451171875,-0.0885842964053154,-0.3309410810470581,0.06233229860663414
1747237103906775300,0.166775390625,-0.11722318828105927,-0.37837523221969604,0.02228497341275215
1747237103916806100,0.17680615234375,-0.15176919102668762,-0.3598194122314453,-0.025938749313354492
1747237103926837200,0.186837158203125,-0.1880548894405365,-0.34252917766571045,-0.08319699764251709
1747237103936868000,0.1968681640625,-0.22362752258777618,-0.3824811279773712,-0.15035340189933777
1747237103946899500,0.2068994140625,-0.25782737135887146,-0.4984874129295349,-0.21872851252555847
1747237103956930300,0.216930419921875,-0.28151804208755493,-0.6356615424156189,-0.26525312662124634
1747237103966961400,0.22696142578125,-0.2930218577384949,-0.7575081586837769,-0.26724672317504883
1747237103976992300,0.2369921875,-0.2895680069923401,-0.8246477842330933,-0.216122567653656
1747237103987023400,0.2470234375,-0.26138970255851746,-0.7639604210853577,-0.1134561151266098
1747237103997053400,0.257053466796875,-0.215718075633049,-0.637596070766449,0.007789616007357836
1747237104007084300,0.267084228515625,-0.14824002981185913,-0.4810795783996582,0.12198728322982788
1747237104017115400,0.277115478515625,-0.12288433313369751,-0.31873619556427,0.22027285397052765
1747237104027146200,0.287146240234375,-0.16987355053424835,-0.23069308698177338,0.2852558493614197
1747237104037177300,0.29717724609375,-0.30793583393096924,-0.26446518301963806,0.2841149568557739
1747237104047208200,0.307208251953125,-0.4882622957229614,-0.40562769770622253,0.20922419428825378
1747237104057239300,0.3172392578125,-0.6555996537208557,-0.5080115795135498,0.05038713663816452
1747237104067270400,0.3272705078125,-0.764273464679718,-0.4831080138683319,-0.17448647320270538
1747237104077301200,0.33730126953125,-0.8186262249946594,-0.4535903334617615,-0.43816524744033813
1747237104087331300,0.347331298828125,-0.8381211757659912,-0.49168694019317627,-0.6966679096221924
1747237104097362200,0.357362060546875,-0.8423859477043152,-0.6907685995101929,-0.8893886208534241
1747237104107393300,0.367393310546875,-0.8439226150512695,-1.0058090686798096,-0.9795757532119751
1747237104117424000,0.377424072265625,-0.8597529530525208,-1.245244026184082,-0.9654653072357178
1747237104127455200,0.387455322265625,-0.8788484930992126,-1.2954963445663452,-0.8465122580528259
1747237104137486300,0.397486328125,-0.9414753913879395,-1.1311695575714111,-0.6646940112113953
1747237104147517200,0.40751708984375,-1.1049721240997314,-0.7520835399627686,-0.5090176463127136
1747237104157548500,0.417548583984375,-1.3340939283370972,-0.26709872484207153,-0.3894031047821045
1747237104167579400,0.427579345703125,-1.5988003015518188,0.1252596527338028,-0.2837197780609131
1747237104177609200,0.437609130859375,-1.8599328994750977,0.15244147181510925,-0.11671189218759537
1747237104187640300,0.447640380859375,-2.0639865398406982,-0.11688674241304398,0.14816369116306305
1747237104197671400,0.45767138671875,-2.1587061882019043,-0.331643283367157,0.45904940366744995
1747237104207702300,0.467702392578125,-2.1243157386779785,-0.27404463291168213,0.7514464259147644
1747237104217733400,0.4777333984375,-1.9660487174987793,-0.04595686122775078,1.0236284732818604
1747237104227764500,0.487764404296875,-1.7115426063537598,0.1436777263879776,1.2628014087677002
1747237104237795300,0.49779541015625,-1.464909553527832,0.1509164571762085,1.3988871574401855
1747237104247826400,0.507826416015625,-1.342437982559204,-0.05955786257982254,1.300927758216858
1747237104257857300,0.517857177734375,-1.3878192901611328,-0.4318792223930359,0.9868635535240173
1747237104267887400,0.527887451171875,-1.5688462257385254,-1.0346177816390991,0.541516125202179
1747237104277918500,0.53791845703125,-1.7491542100906372,-1.7328206300735474,0.08469714969396591
1747237104287949300,0.54794921875,-1.8076614141464233,-2.1666767597198486,-0.3180852234363556
1747237104297980400,0.55798046875,-1.6812821626663208,-2.2214841842651367,-0.6287573575973511
1747237104308011300,0.56801123046875,-1.402901291847229,-1.9215269088745117,-0.8630327582359314
1747237104318042400,0.57804248046875,-1.055144190788269,-1.3844826221466064,-1.0449199676513672
1747237104328073200,0.5880732421875,-0.794569730758667,-0.9079200625419617,-1.1893242597579956
1747237104338104300,0.598104248046875,-0.689002513885498,-0.7085323929786682,-1.2914148569107056
1747237104348135200,0.60813525390625,-0.6711034774780273,-0.7120935320854187,-1.3014174699783325
1747237104358166300,0.618166259765625,-0.612468421459198,-0.6363524198532104,-1.2154353857040405
1747237104368196400,0.6281962890625,-0.43447697162628174,-0.34262874722480774,-1.109631896018982
1747237104378227200,0.638227294921875,-0.1260317862033844,-0.061422914266586304,-1.0368695259094238
1747237104388258300,0.64825830078125,0.22071166336536407,0.19750820100307465,-0.9235357046127319
1747237104398289200,0.6582890625,0.2767522633075714,0.9974470138549805,-0.17145319283008575
1747237104408320300,0.6683203125,0.26779747009277344,1.2591090202331543,0.106490857899189
1747237104418351000,0.67835107421875,0.19021959602832794,1.5934404134750366,0.13104866445064545
1747237104428382200,0.68838232421875,0.24174922704696655,1.5894405841827393,-0.028321340680122375
1747237104438413000,0.6984130859375,0.42702773213386536,1.0367604494094849,-0.30406609177589417
1747237104448444200,0.708444091796875,0.6169410347938538,0.2140326350927353,-0.5451247096061707
1747237104458475000,0.71847509765625,0.7605637311935425,-0.42107000946998596,-0.7535266280174255
1747237104468505000,0.728505126953125,0.8753243088722229,-0.68888920545578,-0.9858505129814148
1747237104478536200,0.7385361328125,0.9943156838417053,-0.6372219920158386,-1.1265722513198853
1747237104488567000,0.748567138671875,1.1291799545288086,-0.4008994400501251,-1.0780398845672607
1747237104498598400,0.758598388671875,1.282323956489563,-0.07148587703704834,-0.8718805313110352
1747237104508629200,0.768629150390625,1.4873294830322266,0.32771816849708557,-0.5921472311019897
1747237104518660400,0.778660400390625,1.7232698202133179,0.7260924577713013,-0.2996535301208496
1747237104528691200,0.788691162109375,1.7929705381393433,1.0780142545700073,-0.013756017200648785
1747237104538722300,0.798722412109375,1.6660999059677124,1.1639543771743774,0.27122750878334045
1747237104548753200,0.808753173828125,1.3698686361312866,0.8540129065513611,0.6146220564842224
1747237104558784300,0.8187841796875,0.9623232483863831,0.608806312084198,1.0240780115127563
1747237104568814300,0.828814453125,0.5619742274284363,0.7877188920974731,1.4114735126495361
1747237104578845200,0.83884521484375,0.2580242156982422,1.121428370475769,1.837519884109497
1747237104588876300,0.848876220703125,0.06026333570480347,1.4407691955566406,2.279021739959717
1747237104598907100,0.8589072265625,-0.10940772294998169,1.8742377758026123,2.6701807975769043
1747237104608938200,0.868938232421875,-0.542926013469696,2.2037429809570312,3.0807926654815674
1747237104618969000,0.878968994140625,-1.0901910066604614,2.4929895401000977,3.3797383308410645
1747237104629000200,0.889000244140625,-1.6347564458847046,2.9475412368774414,3.4721932411193848
1747237104639031300,0.89903125,-2.1776692867279053,3.181149482727051,3.3791663646698
1747237104649062100,0.909062255859375,-2.7266204357147217,2.9302916526794434,2.952131509780884
1747237104659092200,0.91909228515625,-3.232428550720215,2.3011677265167236,2.2278833389282227
1747237104669123000,0.929123046875,-3.600224494934082,1.8847005367279053,1.5430645942687988
1747237104679154200,0.939154296875,-3.5022077560424805,1.370863676071167,1.065913438796997
1747237104689185000,0.94918505859375,-2.976560354232788,0.022639349102973938,0.5960955619812012
1747237104699216100,0.959216064453125,-2.322732448577881,-2.1736552715301514,-0.13815604150295258
1747237104709247200,0.969247314453125,-1.7775958776474,-3.989677667617798,-0.6638866662979126
1747237104719278300,0.9792783203125,-1.368533730506897,-4.517214298248291,-0.3496458828449249
1747237104729309400,0.989309326171875,-1.1935107707977295,-4.400404453277588,0.3329256474971771
1747237104739340300,0.99934033203125,-1.2512062788009644,-4.360491752624512,0.8537171483039856
1747237104749371400,1.009371337890625,-1.441502332687378,-4.760395526885986,0.879109263420105
1747237104759401200,1.019401123046875,-1.6826437711715698,-4.50313663482666,0.1930384784936905
1747237104769432300,1.029432373046875,-1.6625968217849731,-3.697265386581421,-0.0995502844452858
1747237104779463200,1.039463134765625,-1.41303551197052,-2.5510666370391846,-0.5044013857841492
1747237104789494300,1.049494384765625,-1.0448014736175537,-1.63689124584198,-0.7574149966239929
1747237104799525400,1.059525390625,-0.7957842350006104,-1.0377378463745117,-0.9863453507423401
1747237104809556200,1.06955615234375,-0.7103233337402344,-0.913262128829956,-1.2774275541305542
1747237104819587300,1.07958740234375,-0.6249136328697205,-1.3479667901992798,-1.68704092502594
1747237104829618200,1.0896181640625,-0.38043928146362305,-0.1008225828409195,-2.2605254650115967
1747237104839649300,1.099649169921875,0.011547403410077095,0.09990359097719193,-2.582765817642212
1747237104849680100,1.10968017578125,0.2768303155899048,-0.7706484794616699,-2.6313774585723877
1747237104859711200,1.119711181640625,0.4417652189731598,-1.2661209106445312,-2.628934621810913
1747237104869741300,1.1297412109375,0.4595867097377777,-1.4253631830215454,-2.4839086532592773
1747237104879772200,1.139772216796875,0.3822828531265259,-1.1416335105895996,-2.1411640644073486
1747237104889803300,1.14980322265625,0.3282698690891266,-0.7276836633682251,-1.7208740711212158
1747237104899834000,1.159834228515625,0.2598591148853302,-0.6864020228385925,-1.3260306119918823
1747237104909865200,1.169865234375,0.18561740219593048,-0.8314212560653687,-0.9727912545204163
1747237104919896000,1.17989599609375,0.18286262452602386,-0.8922569155693054,-0.636046290397644
1747237104929927200,1.18992724609375,0.2315986007452011,-0.8428329825401306,-0.32680079340934753
1747237104939958300,1.199958251953125,0.27437376976013184,-0.9081717729568481,-0.0975462943315506
1747237104949989400,1.2099892578125,0.30992722511291504,-1.2700952291488647,0.03993292897939682
1747237104960020200,1.220020263671875,0.3516978621482849,-1.7711430788040161,0.12339453399181366
1747237104970050300,1.23005029296875,0.4093376398086548,-2.0719070434570312,0.2589181065559387
1747237104980081400,1.240081298828125,0.5429361462593079,-2.102951765060425,0.4578264057636261
1747237104990112300,1.2501123046875,0.8318244218826294,-1.5820741653442383,0.7552657127380371
1747237105000143400,1.260143310546875,0.8976500034332275,-0.6862344145774841,1.0358408689498901
1747237105010174200,1.27017431640625,0.5556323528289795,-0.19510695338249207,1.1438180208206177
1747237105020205300,1.280205322265625,0.27549123764038086,-0.048472508788108826,1.1425175666809082
1747237105030236200,1.290236083984375,0.27993103861808777,-0.15325212478637695,1.1304247379302979
1747237105040267300,1.300267333984375,0.42413589358329773,-0.3780847191810608,1.2178257703781128
1747237105050298000,1.310298095703125,0.5530315637588501,-0.7106917500495911,1.5662904977798462
1747237105060329200,1.3203291015625,0.5050137042999268,-1.7137632369995117,2.1673121452331543
1747237105070359300,1.330359375,0.36765530705451965,-2.6559228897094727,2.963549852371216
1747237105080390100,1.34039013671875,0.2614753544330597,-2.9154961109161377,3.7421045303344727
1747237105090421200,1.350421142578125,0.07290403544902802,-2.912348747253418,4.044887542724609
1747237105100452000,1.3604521484375,-0.15060707926750183,-3.394465684890747,3.126129627227783
1747237105110483200,1.370483154296875,-0.212160125374794,-3.0671675205230713,2.123103141784668
1747237105120514000,1.38051416015625,-0.2109188288450241,-2.0996930599212646,1.5337939262390137
1747237105130545200,1.390545166015625,-0.2080828845500946,-1.2581299543380737,0.9813061952590942
1747237105140576000,1.400575927734375,-0.2539404034614563,-0.8876643180847168,0.5571389198303223
1747237105150607000,1.410607177734375,-0.24187393486499786,-0.6453500986099243,0.4264954924583435
1747237105160638200,1.42063818359375,-0.11532825231552124,-0.5705764889717102,0.43106815218925476
1747237105170669300,1.43066943359375,0.1128702312707901,-0.9112668633460999,0.48897993564605713
1747237105180699100,1.44069921875,0.3746986389160156,-1.247458815574646,0.6907529830932617
1747237105190730200,1.450730224609375,0.3211078643798828,-1.4284647703170776,0.8822488188743591
1747237105200761300,1.46076123046875,0.10430071502923965,-1.6406805515289307,0.9712314605712891
1747237105210792200,1.470792236328125,-0.0788496658205986,-1.5733870267868042,0.9366423487663269
1747237105220823300,1.4808232421875,-0.06560949981212616,-1.3381372690200806,0.7907578349113464
1747237105230854400,1.4908544921875,0.03116605058312416,-1.0225603580474854,0.5252020955085754
1747237105240885200,1.50088525390625,0.1631147712469101,-0.5817956328392029,0.23247087001800537
1747237105250916400,1.510916259765625,0.20738981664180756,-0.2286304384469986,-0.028401028364896774
1747237105260947200,1.520947265625,0.21354039013385773,0.013748908415436745,-0.026435349136590958
1747237105270978300,1.530978271484375,0.17325328290462494,0.19847556948661804,0.09094726294279099
1747237105281008000,1.541008056640625,0.05140620842576027,-0.008413957431912422,0.23796041309833527
1747237105291039200,1.551039306640625,-0.04937261715531349,-0.3100987672805786,0.3423250913619995
1747237105301070600,1.561070556640625,-0.054393742233514786,-0.5160964131355286,0.41368022561073303
1747237105311101700,1.571101806640625,-0.013852301985025406,-0.6561424136161804,0.46462005376815796
1747237105321132500,1.581132568359375,0.02799847535789013,-0.6197095513343811,0.4994643032550812
1747237105331163600,1.59116357421875,0.06102420762181282,-0.1414545178413391,0.43600699305534363
1747237105341194800,1.60119482421875,0.06523679196834564,0.2955859303474426,0.20943857729434967
1747237105351225600,1.6112255859375,0.017766354605555534,0.6108229756355286,-0.06869670748710632
1747237105361256700,1.621256591796875,-0.07624856382608414,0.8829951286315918,-0.3175954818725586
1747237105371287600,1.63128759765625,-0.17587730288505554,0.9447913765907288,-0.5161811113357544
1747237105381318700,1.641318603515625,-0.10827747732400894,0.8262135982513428,-0.6675328612327576
1747237105391348500,1.651348388671875,0.1208316758275032,0.6166952848434448,-0.721890926361084
1747237105401379600,1.661379638671875,0.32549452781677246,0.2174789309501648,-0.6712751388549805
1747237105411410700,1.67141064453125,0.4933721721172333,-0.22376324236392975,-0.6228362917900085
1747237105421441500,1.681441650390625,0.6860910654067993,-0.37545129656791687,-0.7026653289794922
1747237105431472600,1.69147265625,0.8538414835929871,-0.16613614559173584,-0.9002253413200378
1747237105441503500,1.70150341796875,0.6662073731422424,-0.14206303656101227,-1.0830332040786743
1747237105451534600,1.71153466796875,0.36002612113952637,0.07556506246328354,-0.9649980664253235
1747237105461565400,1.7215654296875,0.1508084386587143,0.6157172322273254,-0.6579230427742004
1747237105471596800,1.7315966796875,0.02133185975253582,0.7300776243209839,-0.4346725344657898
1747237105481627600,1.741627685546875,-0.09245835244655609,0.5926840901374817,-0.20202094316482544
1747237105491657500,1.751657470703125,-0.15722590684890747,0.869071900844574,0.028561105951666832
1747237105501688800,1.761688720703125,0.07271169871091843,1.2174583673477173,-0.011500558815896511
1747237105511719700,1.7717197265625,0.5808322429656982,1.3566269874572754,-0.16037839651107788
1747237105521750800,1.781750732421875,0.961380124092102,1.4160133600234985,-0.3058868646621704
1747237105531781600,1.79178173828125,1.1469871997833252,1.1883479356765747,-0.36284175515174866
1747237105541812700,1.801812744140625,1.1562670469284058,0.8682580590248108,-0.18085359036922455
1747237105551843600,1.811843505859375,0.9676647782325745,0.42681196331977844,0.2700575292110443
1747237105561874700,1.821874755859375,0.6632702946662903,-0.059124916791915894,0.7505208253860474
1747237105571905500,1.831905517578125,0.31721240282058716,-0.3808259963989258,1.035794734954834
1747237105581936600,1.8419365234375,0.13604526221752167,-0.8097267746925354,1.0891008377075195
1747237105591967500,1.851967529296875,0.11982934921979904,-1.110557198524475,1.0305403470993042
1747237105601997600,1.86199755859375,0.11433257907629013,-1.1434049606323242,0.8578494191169739
1747237105612028700,1.872028564453125,0.08701193332672119,-0.963127613067627,0.6680540442466736
1747237105622059500,1.8820595703125,0.03909074887633324,-0.6783366203308105,0.5157244205474854
1747237105632090600,1.892090576171875,0.0007549466099590063,-0.33416011929512024,0.41100358963012695
1747237105642121500,1.90212158203125,-0.00719059444963932,0.06950798630714417,0.31457987427711487
1747237105652152600,1.912152587890625,0.005719686858355999,0.4137817323207855,0.19074301421642303
1747237105662183400,1.922183349609375,0.0174969844520092,0.5871487259864807,0.0574994795024395
1747237105672214500,1.932214599609375,-0.0027032243087887764,0.6541550755500793,-0.08041180670261383
1747237105682245400,1.942245361328125,-0.02580667845904827,0.6334426403045654,-0.2365284264087677
1747237105692276700,1.95227685546875,-0.010484322905540466,0.6410878896713257,-0.3078683018684387
1747237105702306600,1.962306640625,-0.08820228278636932,0.780647873878479,-0.3116462528705597
1747237105712337400,1.97233740234375,-0.040336430072784424,1.0836154222488403,-0.2651996612548828
1747237105722368800,1.98236865234375,0.05658425763249397,1.6993616819381714,-0.20888152718544006
1747237105732399600,1.992399658203125,0.1491972804069519,2.6879465579986572,-0.11118810623884201
1747237105742430700,2.0024306640625,0.23460885882377625,3.7056736946105957,-0.08638288825750351
1747237105752461600,2.012461669921875,0.4123411774635315,4.407391548156738,-0.1315794140100479
1747237105762492700,2.02249267578125,0.7160784006118774,4.606366157531738,-0.27904558181762695
1747237105772523500,2.0325234375,1.0955264568328857,4.561827182769775,-0.6352811455726624
1747237105782554600,2.0425546875,1.3094067573547363,4.4083991050720215,-1.1104553937911987
1747237105792585700,2.052585693359375,1.3569362163543701,4.248301029205322,-1.454155683517456
1747237105802615600,2.062615478515625,1.369145154953003,4.151051044464111,-1.5890588760375977
1747237105812646700,2.072646728515625,1.4792343378067017,4.154324531555176,-1.499956488609314
1747237105822677500,2.082677490234375,1.58057701587677,4.117272853851318,-1.2870087623596191
1747237105832708600,2.09270849609375,1.5532925128936768,3.9664504528045654,-1.0570353269577026
1747237105842739500,2.102739501953125,1.510917067527771,4.003784656524658,-0.8732089996337891
1747237105852770600,2.1127705078125,1.6375770568847656,4.383565425872803,-0.8172929286956787
1747237105862801700,2.1228017578125,1.8696497678756714,4.763612747192383,-0.9902846813201904
1747237105872832500,2.13283251953125,2.0837626457214355,4.811952590942383,-1.4071804285049438
1747237105882863600,2.142863525390625,2.2272753715515137,4.5157790184021,-1.8664910793304443
1747237105892894500,2.15289453125,2.17724871635437,4.141902446746826,-2.124903440475464
1747237105902925600,2.162925537109375,1.9447822570800781,3.5430290699005127,-2.134004592895508
1747237105912955600,2.17295556640625,1.6714895963668823,2.5900158882141113,-1.880724549293518
1747237105922986500,2.182986572265625,1.4056731462478638,1.5276907682418823,-1.4127616882324219
1747237105933017600,2.193017578125,1.214203119277954,0.4705750346183777,-0.8422414660453796
1747237105943048700,2.203048583984375,1.136745810508728,-0.38499581813812256,-0.3455943763256073
1747237105953079800,2.213079833984375,1.1405417919158936,-0.8859257698059082,-0.018651727586984634
1747237105963110700,2.223110595703125,1.1590238809585571,-0.9601222276687622,0.08810774236917496
1747237105973141800,2.233141845703125,1.188773274421692,-0.6791280508041382,-0.0525338277220726
1747237105983172600,2.243172607421875,1.1834450960159302,-0.1272129863500595,-0.42189374566078186
1747237105993203700,2.25320361328125,1.1301757097244263,0.6102578043937683,-0.9426278471946716
1747237106003234600,2.263234619140625,1.028532862663269,1.2535121440887451,-1.486548900604248
1747237106013264600,2.2732646484375,0.8408281803131104,1.6361477375030518,-1.9278390407562256
1747237106023295700,2.283295654296875,0.6154181957244873,1.7065062522888184,-2.1741292476654053
1747237106033326600,2.29332666015625,0.4766198396682739,1.413913607597351,-2.156022071838379
1747237106043357700,2.303357666015625,0.5086672902107239,0.8986116051673889,-1.8700759410858154
1747237106053388500,2.313388427734375,0.7239248156547546,0.5192533731460571,-1.4084357023239136
1747237106063419600,2.323419677734375,1.0687988996505737,0.43947914242744446,-1.0187827348709106
1747237106073450500,2.333450439453125,1.4726073741912842,0.5817409753799438,-0.9398474097251892
1747237106083481600,2.343481689453125,1.8207675218582153,0.7371795773506165,-1.1950650215148926
1747237106093512400,2.353512451171875,1.9956848621368408,0.7897709012031555,-1.625604510307312
1747237106103543600,2.36354345703125,2.0028741359710693,0.752669632434845,-2.004274845123291
1747237106113573600,2.37357373046875,1.9037054777145386,0.47403308749198914,-2.2105751037597656
1747237106123604500,2.3836044921875,1.7516400814056396,0.016802437603473663,-2.3198626041412354
1747237106133635600,2.393635498046875,1.5777356624603271,-0.48053252696990967,-2.429413318634033
1747237106143666400,2.40366650390625,1.5129848718643188,-0.953930675983429,-2.559692859649658
1747237106153697500,2.413697509765625,1.5886220932006836,-1.3345215320587158,-2.7142446041107178
1747237106163728600,2.423728759765625,1.7275142669677734,-1.5698091983795166,-2.864636182785034
1747237106173759700,2.433759765625,1.9327528476715088,-1.6480047702789307,-3.0004823207855225
1747237106183790600,2.44379052734375,2.2175095081329346,-1.6156290769577026,-3.1520278453826904
1747237106193821700,2.45382177734375,2.538001298904419,-1.4414180517196655,-3.292989730834961
1747237106203852500,2.4638525390625,2.8363287448883057,-1.2039719820022583,-3.3933470249176025
1747237106213883600,2.473883544921875,2.6425623893737793,-0.9120631814002991,-3.224421977996826
1747237106223913700,2.483913818359375,2.09029483795166,-0.329982191324234,-2.606677770614624
1747237106233944600,2.493944580078125,1.52257239818573,0.32957446575164795,-1.6151103973388672
1747237106243975700,2.5039755859375,1.0676531791687012,1.4147963523864746,-0.3981993794441223
1747237106254006500,2.514006591796875,0.7859432697296143,2.5646519660949707,0.5285840630531311
1747237106264037600,2.52403759765625,0.7026260495185852,2.9392075538635254,0.5107573866844177
1747237106274068500,2.534068359375,0.7611008286476135,2.891136646270752,-0.0598401315510273
1747237106284099600,2.544099609375,0.8705575466156006,3.3845624923706055,0.04708924517035484
1747237106294130700,2.554130615234375,1.1475975513458252,3.4963552951812744,0.456743448972702
1747237106304161800,2.564161865234375,1.336724042892456,3.5912137031555176,0.7613531351089478
1747237106314193000,2.57419287109375,1.411737322807312,3.504063129425049,0.7008249759674072
1747237106324222700,2.58422265625,1.3519214391708374,3.1077470779418945,0.4221382439136505
1747237106334253800,2.59425390625,1.241755723953247,2.802304267883301,0.24364598095417023
1747237106344284700,2.60428466796875,1.1868785619735718,2.314826011657715,0.03982601687312126
1747237106354315800,2.614315673828125,1.2363951206207275,1.7446461915969849,-0.10203900188207626
1747237106364346600,2.6243466796875,1.536581039428711,1.3177615404129028,-0.133656308054924
1747237106374377700,2.634377685546875,1.8880099058151245,0.8267907500267029,-0.2111920863389969
1747237106384408800,2.644408935546875,2.1557703018188477,0.2078840732574463,-0.32824334502220154
1747237106394439700,2.654439697265625,2.261331081390381,-0.27528733015060425,-0.4764307737350464
1747237106404470800,2.664470703125,2.233949899673462,-0.3075683116912842,-0.6708066463470459
1747237106414501600,2.674501708984375,2.087432384490967,0.16428184509277344,-0.6949801445007324
1747237106424531700,2.68453173828125,1.9387630224227905,0.6027017831802368,-0.7830753326416016
1747237106434562600,2.6945625,1.8830933570861816,0.9764612317085266,-0.9413259029388428
1747237106444593700,2.70459375,1.9720301628112793,0.7964781522750854,-1.0931620597839355
1747237106454624800,2.714624755859375,2.1078779697418213,0.7165913581848145,-1.0286115407943726
1747237106464655600,2.724655517578125,2.2102701663970947,0.6496131420135498,-0.9193122982978821
1747237106474686700,2.734686767578125,2.137709379196167,0.3756980001926422,-0.769686222076416
1747237106484717600,2.744717529296875,1.8849244117736816,-0.13573943078517914,-0.46405497193336487
1747237106494748700,2.754748779296875,1.5832955837249756,-0.5066641569137573,0.004320497624576092
1747237106504779500,2.764779541015625,1.3478409051895142,-0.8692114353179932,0.36050525307655334
1747237106514811000,2.774810791015625,1.1770107746124268,-1.1580466032028198,0.5664935111999512
1747237106524840700,2.7848408203125,1.0675541162490845,-1.4782816171646118,0.69017493724823
1747237106534871600,2.79487158203125,0.9665480852127075,-1.6990898847579956,0.7917065620422363
1747237106544903000,2.80490283203125,0.8727675676345825,-1.7146373987197876,0.8268651366233826
1747237106554933800,2.814933837890625,0.40994879603385925,-1.3893649578094482,1.0102930068969727
1747237106564964900,2.82496484375,-0.31182989478111267,-0.9574372172355652,0.931210458278656
1747237106574995700,2.83499560546875,-0.5908897519111633,-0.43540534377098083,0.6849796175956726
1747237106585026800,2.84502685546875,-0.5929536819458008,0.4735901355743408,0.6481323838233948
1747237106595057700,2.8550576171875,-0.36062726378440857,0.42592793703079224,0.5206445455551147
1747237106605088800,2.8650888671875,-0.025257783010601997,0.3661873936653137,0.519062876701355
1747237106615119600,2.87511962890625,0.27115708589553833,-0.05191425234079361,0.6730449795722961
1747237106625149700,2.885149658203125,0.2630578875541687,-0.6506974697113037,1.0107864141464233
1747237106635180800,2.895180908203125,-0.001152376877143979,-1.3322948217391968,1.4498379230499268
1747237106645211600,2.905211669921875,-0.4702106714248657,-2.1177055835723877,1.8782038688659668
1747237106655242800,2.91524267578125,-1.2124589681625366,-3.0884244441986084,2.2545740604400635
1747237106665273600,2.925273681640625,-2.0262818336486816,-4.1002349853515625,2.463207721710205
1747237106675304700,2.9353046875,-2.9300267696380615,-4.682780742645264,2.4137425422668457
1747237106685335600,2.94533544921875,-3.8772950172424316,-4.606236457824707,2.100398540496826
1747237106695366700,2.95536669921875,-4.694766044616699,-3.7764956951141357,1.6140215396881104
1747237106705397500,2.9653974609375,-5.412924289703369,-2.3805341720581055,1.3242429494857788
1747237106715428600,2.9754287109375,-6.055213451385498,-0.534933865070343,1.0087800025939941
1747237106725459500,2.98545947265625,-6.1883320808410645,0.35061243176460266,0.8872366547584534
1747237106735489500,2.995489501953125,-6.607856750488281,0.18505677580833435,0.9376137256622314
1747237106745520600,3.005520751953125,-5.949398040771484,1.444413423538208,0.8197632431983948
1747237106755551500,3.015551513671875,-5.102715969085693,2.2994065284729004,0.48590466380119324
1747237106765582800,3.025582763671875,-4.678589344024658,1.9564329385757446,-0.07562579959630966
1747237106775613700,3.03561376953125,-4.322147846221924,1.465675950050354,-0.5147342681884766
1747237106785644800,3.045644775390625,-3.841127395629883,1.296433687210083,-0.7873130440711975
1747237106795675600,3.055675537109375,-3.117234706878662,1.53508722782135,-1.0873253345489502
1747237106805706800,3.065706787109375,-2.1748299598693848,1.9421969652175903,-1.315237045288086
1747237106815737600,3.075737548828125,-1.1454119682312012,2.6888742446899414,-1.4309260845184326
1747237106825768700,3.085768798828125,-0.35224369168281555,3.066519021987915,-1.5749506950378418
1747237106835798800,3.095798828125,-0.01324491947889328,2.7863690853118896,-1.6305445432662964
1747237106845829600,3.10582958984375,0.15267987549304962,2.2441563606262207,-1.5130232572555542
1747237106855860700,3.11586083984375,0.07889916747808456,1.6923121213912964,-1.361957311630249
1747237106865891600,3.1258916015625,0.17110580205917358,0.8336865305900574,-0.7056041955947876
1747237106875922700,3.135922607421875,0.18987403810024261,0.6864057779312134,-0.18011687695980072
1747237106885953800,3.145953857421875,-0.14396464824676514,0.3572917878627777,-0.012568362057209015
1747237106895984600,3.155984619140625,-0.3114321529865265,-0.017066102474927902,0.3340446949005127
1747237106906015700,3.166015625,-0.3618026375770569,-0.04941844940185547,0.4954943060874939
1747237106916046600,3.176046630859375,-0.2806425392627716,0.21170182526111603,0.5744325518608093
1747237106926077700,3.18607763671875,-0.29671046137809753,-0.6865770220756531,0.550545871257782
1747237106936107500,3.196107421875,-0.15978530049324036,-1.4945392608642578,0.8498740792274475
1747237106946138600,3.206138671875,0.05542740598320961,-1.4242092370986938,1.228047251701355
1747237106956169700,3.216169677734375,0.3398459553718567,-0.9757297039031982,1.492136001586914
1747237106966200600,3.22620068359375,0.6316881775856018,-0.7528683543205261,1.5748621225357056
1747237106976231700,3.236231689453125,0.9068368077278137,-0.4761585593223572,1.6205857992172241
1747237106986262800,3.2462626953125,1.3110042810440063,-0.8248617053031921,1.5288865566253662
1747237106996294000,3.2562939453125,1.4511812925338745,-2.0813279151916504,0.7557228207588196
1747237107006324700,3.26632470703125,1.4101321697235107,-1.9840363264083862,0.4029375910758972
1747237107016355800,3.27635595703125,1.3818788528442383,-1.5126956701278687,0.24202126264572144
1747237107026386700,3.28638671875,1.2437745332717896,-1.3888075351715088,0.253294438123703
1747237107036416800,3.296416748046875,0.799791157245636,-1.394547939300537,0.33587825298309326
1747237107046447900,3.30644775390625,0.07605692744255066,-1.1742507219314575,0.45747098326683044
1747237107056478700,3.316478759765625,-0.6536861658096313,-0.7749723196029663,0.5076228380203247
1747237107066509800,3.326509765625,-1.118359088897705,-0.2955721914768219,0.451044499874115
1747237107076540700,3.336540771484375,-1.3461918830871582,0.4553738534450531,0.3964056968688965
1747237107086571800,3.34657177734375,-1.4324612617492676,1.2896770238876343,0.4366593658924103
1747237107096602600,3.3566025390625,-1.3990387916564941,2.2637085914611816,0.6203504204750061
1747237107106633700,3.3666337890625,-1.1524378061294556,2.6631364822387695,0.6736719608306885
1747237107116664600,3.37666455078125,-0.7360367774963379,2.8057079315185547,0.4783128798007965
1747237107126695700,3.38669580078125,-0.32304757833480835,2.434332847595215,0.1928340196609497
1747237107136725800,3.396725830078125,-0.07068684697151184,1.549407958984375,-0.023063899949193
1747237107146756600,3.406756591796875,-0.024215217679739,0.8239997625350952,-0.06776478886604309
1747237107156787700,3.41678759765625,-0.06789558380842209,0.4114041328430176,0.21536216139793396
1747237107166818600,3.426818603515625,-0.11807645857334137,0.4878920018672943,0.5701189637184143
1747237107176849700,3.436849609375,-0.09506861865520477,1.1639111042022705,0.7228858470916748
1747237107186880500,3.446880615234375,-0.04364137724041939,2.0818378925323486,0.6088993549346924
1747237107196911600,3.45691162109375,0.013108722865581512,2.9065170288085938,0.3995772898197174
1747237107206942700,3.466942626953125,0.006168792489916086,3.105675220489502,0.19961169362068176
1747237107216973800,3.476973876953125,-0.048937950283288956,1.9088877439498901,0.046394385397434235
1747237107227004700,3.487004638671875,-0.12427771091461182,0.3349565863609314,0.4568879008293152
1747237107237034800,3.49703466796875,-0.013070221059024334,0.06907171756029129,0.7464479804039001
1747237107247065900,3.50706591796875,0.12341811507940292,-0.0950639620423317,0.8814513087272644
1747237107257096700,3.5170966796875,0.006258542649447918,-0.4961371123790741,0.8773677945137024
1747237107267127800,3.5271279296875,-0.1601424217224121,-0.6985352039337158,0.7956801056861877
1747237107277158700,3.53715869140625,-0.2713281214237213,-0.6188043355941772,0.682464063167572
1747237107287189800,3.547189697265625,-0.3323906660079956,-0.13417214155197144,0.6976470351219177
1747237107297220600,3.557220703125,-0.5021399259567261,0.3692622482776642,0.47848719358444214
1747237107307251200,3.567251220703125,-0.7444793581962585,0.9933649897575378,0.2347719967365265
1747237107317282300,3.5772822265625,-0.8772069811820984,1.7409770488739014,-0.07413563877344131
1747237107327313200,3.587313232421875,-0.8583515286445618,2.065275192260742,-0.42526036500930786
1747237107337343200,3.59734326171875,-0.8007408976554871,1.363337755203247,-0.6043826937675476
1747237107347374000,3.6073740234375,-0.7325109839439392,0.2071724236011505,-0.5087246298789978
1747237107357405200,3.6174052734375,-0.7154457569122314,-0.6671825647354126,-0.3098558485507965
1747237107367436300,3.627436279296875,-0.8004937767982483,-1.045607089996338,-0.09410170465707779
1747237107377467100,3.637467041015625,-0.9450594186782837,-1.0058200359344482,0.03976844996213913
1747237107387498200,3.647498291015625,-1.0738147497177124,-0.6218118071556091,0.061030063778162
1747237107397529000,3.657529052734375,-1.1385376453399658,-0.11411793529987335,0.045274827629327774
1747237107407560200,3.667560302734375,-1.1657838821411133,0.22433042526245117,0.015381374396383762
1747237107417591000,3.677591064453125,-1.2273508310317993,0.3234653174877167,-0.06592194736003876
1747237107427621000,3.68762109375,-1.3378636837005615,0.20933635532855988,-0.11161753535270691
1747237107437652200,3.69765234375,-1.4721899032592773,-0.059474777430295944,-0.04169027879834175
1747237107447683000,3.70768310546875,-1.5897923707962036,-0.35532161593437195,0.12586331367492676
1747237107457714200,3.717714111328125,-1.7264107465744019,-0.4377512037754059,0.28927481174468994
1747237107467745300,3.727745361328125,-1.97214937210083,-0.4282064139842987,0.3467005491256714
1747237107477776400,3.7377763671875,-2.2678606510162354,-0.32714277505874634,0.3114207983016968
1747237107487807200,3.74780712890625,-2.498706102371216,-0.18955855071544647,0.26027557253837585
1747237107497838300,3.75783837890625,-2.557922124862671,-0.0005321716889739037,0.2291189730167389
1747237107507869200,3.767869140625,-2.437511920928955,0.13206714391708374,0.24630701541900635
1747237107517900300,3.777900390625,-2.2154037952423096,0.20119048655033112,0.28466424345970154
1747237107527930400,3.787930419921875,-2.134521722793579,0.09920579940080643,0.3553770184516907
1747237107537961200,3.797961181640625,-2.164891004562378,-0.11213191598653793,0.3048856258392334
1747237107547992300,3.807992431640625,-2.215209484100342,-0.2896513044834137,0.13076867163181305
1747237107558023200,3.818023193359375,-2.1143293380737305,-0.40733131766319275,-0.07826899737119675
1747237107568054300,3.82805419921875,-1.8041151762008667,-0.28132757544517517,-0.23348015546798706
1747237107578085000,3.838085205078125,-1.739631175994873,-0.34343141317367554,-0.21890360116958618
1747237107588116200,3.8481162109375,-1.8138303756713867,-0.3501495122909546,-0.16036492586135864
1747237107598147000,3.85814697265625,-1.7594982385635376,-0.24431487917900085,-0.14790454506874084
1747237107608178200,3.86817822265625,-1.5299947261810303,-0.1809159219264984,-0.23025400936603546
1747237107618208300,3.878208251953125,-1.3879495859146118,-0.399783194065094,-0.2200894057750702
1747237107628239000,3.888239013671875,-1.2025970220565796,-0.5396938920021057,-0.20405425131320953
1747237107638270200,3.898270263671875,-1.061430811882019,-0.3879327178001404,-0.1736682653427124
1747237107648301000,3.908301025390625,-0.9478590488433838,0.03202565386891365,-0.0933622419834137
1747237107658332200,3.918332275390625,-0.7709612250328064,0.3849714696407318,-0.011424493975937366
1747237107668363000,3.928363037109375,-0.6233006715774536,0.39716342091560364,0.08481335639953613
1747237107678394000,3.93839404296875,-0.4003032147884369,0.20908628404140472,0.13941337168216705
1747237107688425200,3.94842529296875,-0.10792968422174454,0.117136649787426,0.02370673604309559
1747237107698456300,3.958456298828125,0.029937241226434708,0.24317558109760284,-0.14561179280281067
1747237107708486100,3.968486083984375,0.071509450674057,0.37717998027801514,-0.2852993607521057
1747237107718517200,3.978517333984375,0.15605761110782623,0.4476311206817627,-0.33031153678894043
1747237107728548400,3.98854833984375,0.2699173390865326,0.4269428849220276,-0.24871867895126343
1747237107738579200,3.9985791015625,0.362885057926178,0.304537296295166,-0.08032280206680298
1747237107748610300,4.0086103515625,0.4152577221393585,0.12512041628360748,0.04711291566491127
1747237107758641200,4.01864111328125,0.4100187420845032,0.31601282954216003,-0.02139326184988022
1747237107768672300,4.02867236328125,0.26927652955055237,1.0681155920028687,-0.26004818081855774
1747237107778703000,4.038703125,0.26725929975509644,1.01930832862854,-0.30157727003097534
1747237107788734200,4.048734130859375,0.4607779085636139,0.6369617581367493,-0.2608223557472229
1747237107798764300,4.058764404296875,0.6930109858512878,0.38032007217407227,-0.2551765441894531
1747237107808795100,4.068795166015625,0.890711784362793,0.19162020087242126,-0.23552721738815308
1747237107818826200,4.078826171875,0.9462660551071167,-0.06801043450832367,-0.08475632220506668
1747237107828857000,4.088857177734375,1.060202717781067,0.038931991904973984,0.1398027539253235
1747237107838888200,4.09888818359375,1.0867115259170532,0.04013480991125107,0.321492999792099
1747237107848919000,4.1089189453125,0.8806382417678833,-0.28542569279670715,0.37204113602638245
1747237107858950100,4.1189501953125,0.6737725734710693,-0.6156798601150513,0.3085056245326996
1747237107868981200,4.128981201171875,0.5126497149467468,-0.6157123446464539,0.2254006266593933
1747237107879012000,4.13901220703125,0.4033997058868408,-0.5034648776054382,0.16649776697158813
1747237107889042200,4.149042236328125,0.40818116068840027,-0.46520936489105225,0.16551746428012848
1747237107899073000,4.159072998046875,0.4777502417564392,-0.5647177696228027,0.12494741380214691
1747237107909104000,4.169104248046875,0.47276613116264343,-0.9149543642997742,0.14652301371097565
1747237107919135000,4.179135009765625,0.5051600933074951,-1.4622565507888794,0.3428718149662018
1747237107929166000,4.189166015625,0.5043084025382996,-2.0091488361358643,0.6128684282302856
1747237107939197200,4.199197265625,0.3992125391960144,-2.251659393310547,0.8119005560874939
1747237107949228300,4.209228271484375,0.39247873425483704,-2.3639533519744873,0.8189566135406494
1747237107959259400,4.21925927734375,0.3869953751564026,-2.4764041900634766,0.7505436539649963
1747237107969290200,4.229290283203125,0.36066576838493347,-2.6563479900360107,0.7504443526268005
1747237107979320300,4.2393203125,0.19176656007766724,-2.9044458866119385,0.8806747794151306
1747237107989351200,4.24935107421875,0.10963866859674454,-2.888571262359619,1.0360958576202393
1747237107999382300,4.25938232421875,-0.3700909912586212,-2.73160457611084,0.9903406500816345
1747237108009413000,4.2694130859375,-1.4565669298171997,-2.7286338806152344,0.5984405279159546
1747237108019444200,4.2794443359375,-3.091811180114746,-3.249194383621216,-0.28138554096221924
1747237108029475300,4.289475341796875,-4.766384601593018,-4.1649651527404785,-1.5351351499557495
1747237108039506200,4.299506103515625,-5.157456398010254,-3.6366400718688965,-2.2360405921936035
1747237108049537300,4.309537353515625,-4.701336860656738,-2.5684590339660645,-1.9139704704284668
1747237108059568000,4.319568115234375,-3.7227444648742676,-1.1953976154327393,-0.7352964878082275
1747237108069598200,4.32959814453125,-2.074118137359619,0.11564246565103531,0.7310250997543335
1747237108079629000,4.339629150390625,-0.1164686381816864,0.5518530607223511,1.8362557888031006
1747237108089660200,4.34966015625,1.0078157186508179,0.35474827885627747,2.228724241256714
1747237108099691300,4.359691162109375,1.1474229097366333,-0.37386709451675415,2.06803035736084
1747237108109722000,4.36972216796875,0.9529485106468201,-0.6909933686256409,1.5596349239349365
1747237108119753200,4.379753173828125,0.6477025747299194,-0.5748789310455322,0.8638362884521484
1747237108129784000,4.3897841796875,0.34191685914993286,-0.24747632443904877,0.095036581158638
1747237108139815200,4.399815185546875,0.16499020159244537,0.330597460269928,-0.6135582327842712
1747237108149846000,4.409845947265625,0.07877834886312485,1.059601068496704,-1.1418098211288452
1747237108159876000,4.4198759765625,0.02638978138566017,1.7636611461639404,-1.4832102060317993
1747237108169907200,4.4299072265625,0.01644873432815075,2.2990357875823975,-1.6753897666931152
1747237108179938000,4.43993798828125,0.05681593343615532,2.6654281616210938,-1.767752766609192
1747237108189969400,4.449969482421875,0.1645330786705017,2.895106554031372,-1.7878615856170654
1747237108200000300,4.460000244140625,0.32955479621887207,2.9163551330566406,-1.754662036895752
1747237108210031400,4.47003125,0.5462820529937744,2.772451877593994,-1.6832581758499146
1747237108220062200,4.480062255859375,0.8347138166427612,2.5294077396392822,-1.5820908546447754
1747237108230093300,4.49009326171875,1.2157515287399292,2.100341320037842,-1.5757842063903809
1747237108240124200,4.500124267578125,1.6845381259918213,1.1980451345443726,-1.2861183881759644
1747237108250154200,4.510154296875,2.1934947967529297,0.10473505407571793,-0.5679330825805664
1747237108260185300,4.520185302734375,2.6712348461151123,0.017020894214510918,0.18826381862163544
1747237108270216200,4.53021630859375,2.963685989379883,1.1441258192062378,0.3749908208847046
1747237108280247300,4.540247314453125,2.9627137184143066,2.41980242729187,-0.04356459900736809
1747237108290278100,4.550278076171875,2.869654893875122,3.2273736000061035,-0.6627522110939026
1747237108300309200,4.560309326171875,2.8294315338134766,3.2508835792541504,-1.1725269556045532
1747237108310339800,4.57033984375,2.8421413898468018,2.63430118560791,-1.2506375312805176
1747237108320371000,4.580370849609375,2.830397605895996,1.1574571132659912,-0.7200098633766174
1747237108330401800,4.59040185546875,2.678621292114258,0.7460784912109375,-0.21162283420562744
1747237108340432000,4.600431884765625,2.3799989223480225,0.8325237035751343,-0.07585491240024567
1747237108350463000,4.610462890625,2.1236891746520996,0.5209210515022278,0.2070196568965912
1747237108360493800,4.620493896484375,1.8488197326660156,0.461569219827652,0.30262064933776855
1747237108370525000,4.63052490234375,1.553501009941101,0.6750481724739075,0.1831216663122177
1747237108380555800,4.6405556640625,1.3871229887008667,1.8197126388549805,-0.1530911922454834
1747237108390587000,4.6505869140625,0.8127270340919495,1.069286823272705,-0.2378859668970108
1747237108400617700,4.66061767578125,0.1350591480731964,0.5266823172569275,-0.12408189475536346
1747237108410648800,4.67064892578125,-0.24173393845558167,0.0008880328387022018,0.013686350546777248
1747237108420680000,4.680679931640625,-0.2944755256175995,-0.46737223863601685,0.11771615594625473
1747237108430709800,4.690709716796875,-0.17817899584770203,-0.47311320900917053,0.1132335215806961
1747237108440740900,4.700740966796875,-0.06452315300703049,-0.28252241015434265,0.06625165790319443
1747237108450772000,4.71077197265625,0.023896196857094765,-0.06509583443403244,0.019558720290660858
1747237108460803000,4.720802978515625,0.059277694672346115,0.03537136688828468,-0.011443525552749634
1747237108470834000,4.730833984375,0.04763675108551979,-0.05693779140710831,0.004827322904020548
1747237108480865000,4.740864990234375,0.00862869992852211,-0.15495063364505768,0.03827046602964401
1747237108490896000,4.750895751953125,-0.011517846956849098,-0.1624295860528946,0.05445636063814163
1747237108500927000,4.760927001953125,-0.013961562886834145,-0.1125820204615593,0.08813624829053879
1747237108510957000,4.77095703125,-0.03427908569574356,0.05590233579277992,0.09036291390657425
1747237108520988000,4.78098779296875,-0.030316965654492378,0.22548195719718933,0.07254128903150558
1747237108531019000,4.79101904296875,0.00285030878148973,0.2994003891944885,0.08880095183849335
1747237108541049900,4.8010498046875,0.01917760819196701,0.2874438464641571,0.09155115485191345
1747237108551081000,4.8110810546875,0.03492541238665581,0.24093040823936462,0.05211826041340828
1747237108561111800,4.82111181640625,0.0835978090763092,0.19109781086444855,0.012436840683221817
1747237108571143000,4.831142822265625,0.1445581018924713,0.20117893815040588,-0.0015111993998289108
1747237108581174000,4.841174072265625,0.14017353951931,0.23245181143283844,0.006079619750380516
1747237108591204900,4.851204833984375,0.07736741006374359,0.2879270315170288,-0.009797614067792892
1747237108601235000,4.86123486328125,-0.013721147552132607,0.35030481219291687,-0.04994138330221176
1747237108611265800,4.871265869140625,-0.1135161817073822,0.4466116428375244,-0.141890749335289
1747237108621297000,4.881296875,-0.2007882297039032,0.8982815146446228,-0.4237053394317627
1747237108631327700,4.89132763671875,-0.19815969467163086,1.5661042928695679,-0.7548723816871643
1747237108641358800,4.90135888671875,-0.10119107365608215,1.8665096759796143,-0.8346801400184631
1747237108651390000,4.911389892578125,0.026835599914193153,1.2711925506591797,-0.6835899949073792
1747237108661420800,4.9214208984375,0.12423991411924362,0.5464954972267151,-0.5086658000946045
1747237108671452200,4.9314521484375,0.3023960590362549,-0.05048906058073044,-0.26802974939346313
1747237108681483000,4.94148291015625,0.4787387251853943,-0.33447277545928955,-0.0005402109818533063
1747237108691512800,4.951512939453125,0.6024183630943298,-0.3512434959411621,0.18007776141166687
1747237108701544000,4.9615439453125,0.6583827137947083,-0.2784026563167572,0.2623447775840759
1747237108711575000,4.971574951171875,0.5386880040168762,-0.37328392267227173,0.24611309170722961
1747237108721606100,4.981606201171875,0.48197075724601746,-0.5840696692466736,0.1728459894657135
1747237108731637000,4.991636962890625,0.46143004298210144,-0.566032350063324,0.07538975775241852
1747237108741668000,5.001668212890625,0.4651872515678406,-0.6727662682533264,-0.005647932179272175
1747237108751699000,5.011698974609375,0.5862258076667786,-0.8763806223869324,0.010253003798425198
1747237108761730000,5.02172998046875,0.7081626653671265,-0.9514102339744568,0.1301748901605606
1747237108771761000,5.031760986328125,0.768559455871582,-1.2496520280838013,0.30743035674095154
1747237108781791000,5.041791015625,0.6695094704627991,-1.1460769176483154,0.38063952326774597
1747237108791822000,5.051822021484375,0.35972148180007935,-0.6287413239479065,0.2859567105770111
1747237108801853000,5.06185302734375,0.029051950201392174,-0.15567819774150848,0.039302974939346313
1747237108811884000,5.071884033203125,-0.0389164499938488,-0.09211094677448273,-0.12370378524065018
1747237108821915000,5.081914794921875,0.004340342245995998,-0.272992342710495,-0.09929105639457703
1747237108831946000,5.091946044921875,0.06678081303834915,-0.4624173939228058,-0.00857473537325859
1747237108841976800,5.101976806640625,0.07189588993787766,-0.5599222183227539,0.05872479826211929
1747237108852008000,5.112008056640625,0.0618046373128891,-0.40443915128707886,0.04385876655578613
1747237108862038000,5.1220380859375,0.007801321800798178,-0.3087964653968811,-0.010142060928046703
1747237108872068900,5.13206884765625,-0.03776616230607033,-0.4111012816429138,-0.059765808284282684
1747237108882100000,5.142099853515625,-0.0706581324338913,-0.5415193438529968,-0.11105456948280334
1747237108892130800,5.152130859375,-0.13281629979610443,-0.6196024417877197,-0.13499104976654053
1747237108902162000,5.162161865234375,-0.20425647497177124,-0.620547354221344,-0.1400345265865326
1747237108912192800,5.17219287109375,-0.2209920436143875,-0.56039959192276,-0.09086617827415466
1747237108922224000,5.18222412109375,-0.16335050761699677,-0.49171507358551025,0.0018224443774670362
1747237108932255000,5.1922548828125,-0.07622414082288742,-0.3745351731777191,0.08562200516462326
1747237108942286000,5.2022861328125,-0.029872549697756767,-0.2411157339811325,0.12481112778186798
1747237108952317000,5.21231689453125,-0.04101787880063057,-0.19120943546295166,0.13583609461784363
1747237108962347000,5.222346923828125,-0.04946695268154144,-0.17703649401664734,0.11430808901786804
1747237108972378000,5.232378173828125,-0.03845531493425369,-0.18441104888916016,0.06701833754777908
1747237108982409000,5.242408935546875,-0.004493026994168758,-0.14940369129180908,0.0007534403121098876
1747237108992440000,5.252440185546875,0.03609434887766838,-0.18625518679618835,-0.024146582931280136
1747237109002471000,5.262470947265625,0.12903420627117157,-0.30906176567077637,0.022891199216246605
1747237109012502000,5.272501953125,0.22251063585281372,-0.4358364939689636,0.09426204860210419
1747237109022532900,5.282532958984375,0.2738263010978699,-0.30207809805870056,0.09566432982683182
1747237109032564000,5.29256396484375,0.12721234560012817,0.020372644066810608,0.03688650578260422
1747237109042594800,5.3025947265625,0.04040107876062393,0.09068872034549713,-0.01639574207365513
1747237109052625000,5.312625,-0.017089111730456352,0.16863304376602173,-0.050243452191352844
1747237109062656000,5.322656005859375,-0.04863651469349861,0.21902424097061157,-0.05667101591825485
1747237109072686800,5.332686767578125,-0.04230272024869919,0.23082444071769714,-0.04377998411655426
1747237109082718000,5.342718017578125,-0.025841522961854935,0.22600820660591125,-0.05631895735859871
1747237109092748800,5.352748779296875,-0.05704737827181816,0.15877243876457214,-0.06389724463224411
1747237109102780000,5.36277978515625,-0.1308901160955429,0.06941904127597809,-0.038989756256341934
1747237109112810800,5.372810791015625,-0.1765870302915573,0.08093028515577316,-0.00684993015602231
1747237109122841900,5.382841796875,-0.20709334313869476,0.1363775134086609,-0.006499515380710363
1747237109132872700,5.392872802734375,-0.20375825464725494,0.15835604071617126,-0.027029557153582573
1747237109142902800,5.40290283203125,-0.1750517040491104,0.11925458163022995,-0.0389946885406971
1747237109152934000,5.412933837890625,-0.1434120237827301,0.12018030136823654,-0.03219963237643242
1747237109162964700,5.42296484375,-0.14928555488586426,0.17544326186180115,-0.009691732004284859
1747237109172996000,5.43299609375,-0.14354164898395538,0.2188112437725067,-0.008640316314995289
1747237109183027000,5.44302685546875,-0.12637978792190552,0.2639753520488739,-0.04037189111113548
1747237109193058000,5.45305810546875,-0.07994810491800308,0.2760447859764099,-0.05960630625486374
1747237109203089000,5.4630888671875,-0.040418535470962524,0.23661336302757263,-0.050912726670503616
1747237109213120000,5.4731201171875,-0.04538186639547348,0.13608169555664062,-0.02482333779335022
1747237109223150800,5.48315087890625,-0.03629842400550842,0.13032414019107819,-0.021498704329133034
1747237109233181000,5.493180908203125,-0.006785538978874683,0.19722753763198853,-0.02190137468278408
1747237109243212000,5.5032119140625,-0.028538770973682404,0.15335606038570404,-0.01470715831965208
1747237109253243000,5.513242919921875,-0.025953372940421104,0.07833775877952576,0.008808021433651447
1747237109263274000,5.52327392578125,0.016818448901176453,-0.053352322429418564,0.019575433805584908
1747237109273304800,5.533304931640625,0.024076363071799278,-0.10164768248796463,-0.0255944412201643
1747237109283336000,5.5433359375,0.017308147624135017,-0.21806204319000244,-0.05116529017686844
1747237109293366800,5.55336669921875,0.008791624568402767,-0.2511949837207794,-0.07249347865581512
1747237109303398100,5.563398193359375,0.01690787635743618,-0.22327907383441925,-0.06203475967049599
1747237109313429000,5.573428955078125,0.019029881805181503,-0.1919291466474533,-0.06568728387355804
1747237109323459000,5.583458984375,-0.07850080728530884,-0.032428041100502014,-0.11037341505289078
1747237109333490200,5.593490234375,-0.128366619348526,0.12994062900543213,-0.13139241933822632
1747237109343521000,5.60352099609375,-0.1456877589225769,0.05693237483501434,-0.028482798486948013
1747237109353552100,5.61355224609375,-0.14410904049873352,0.08024195581674576,0.04960215091705322
1747237109363583000,5.6235830078125,-0.11228040605783463,0.12021322548389435,0.051203660666942596
1747237109373614000,5.633614013671875,-0.06111229211091995,0.00415186258032918,0.039643410593271255
1747237109383645200,5.643645263671875,-0.015445142053067684,-0.10805834829807281,0.010008389130234718
1747237109393676300,5.65367626953125,-0.021970951929688454,-0.1631879061460495,-0.02109573408961296
1747237109403707400,5.663707275390625,-0.02526547946035862,-0.169009730219841,-0.03762126341462135
1747237109413738200,5.67373828125,-0.02972227893769741,-0.1923760324716568,-0.03217163681983948
1747237109423768300,5.683768310546875,-0.011215374805033207,-0.19585272669792175,-0.01674921251833439
1747237109433799200,5.693799072265625,0.03724243491888046,-0.17373225092887878,-0.009281442500650883
1747237109443830300,5.703830322265625,0.11790791898965836,-0.12463251501321793,0.013315201736986637
1747237109453861000,5.713861083984375,0.2021746039390564,-0.23425595462322235,0.03135119378566742
1747237109463892200,5.723892333984375,0.08977455645799637,-0.16863608360290527,-0.0056116641499102116
1747237109473923300,5.73392333984375,0.03207504376769066,-0.24653248488903046,-0.045701559633016586
1747237109483954200,5.7439541015625,0.013089834712445736,-0.1883520483970642,-0.06974250078201294
1747237109493985300,5.7539853515625,0.02842964231967926,-0.11498409509658813,-0.07992376387119293
1747237109504016100,5.76401611328125,0.04861406981945038,-0.10461890697479248,-0.05155922845005989
1747237109514046200,5.774046142578125,0.05688798055052757,-0.10242898762226105,-0.00608042674139142
1747237109524077000,5.7840771484375,0.07830358296632767,-0.12754131853580475,0.026433944702148438
1747237109534108200,5.794108154296875,0.094705730676651,-0.1338474154472351,0.03327347710728645
1747237109544139300,5.80413916015625,0.08659627288579941,-0.12363575398921967,0.03055565059185028
1747237109554170000,5.814170166015625,0.0804787278175354,-0.11327632516622543,0.03387821093201637
1747237109564201200,5.824201171875,0.0700019896030426,-0.06832586228847504,0.033417679369449615
1747237109574232000,5.834232177734375,0.0526869110763073,-0.03957703709602356,0.021745575591921806
1747237109584263200,5.84426318359375,0.0255509614944458,-0.042810965329408646,-0.012701242230832577
1747237109594294000,5.8542939453125,0.015612578950822353,-0.007480405271053314,-0.033665645867586136
1747237109604325400,5.864325439453125,0.011687947437167168,0.032905079424381256,-0.0320228710770607
1747237109614355200,5.874355224609375,0.0343911312520504,0.012077827006578445,-0.006984362378716469
1747237109624386000,5.884385986328125,0.04761265963315964,-0.0009350236505270004,0.01063169538974762
1747237109634417400,5.89441748046875,0.05449986085295677,0.00007191766053438187,0.008294505067169666
1747237109644448300,5.9044482421875,0.028044741600751877,0.04555690661072731,-0.005588866304606199
1747237109654479400,5.914479248046875,0.012609859928488731,0.13218741118907928,-0.019058337435126305
1747237109664510200,5.92451025390625,0.025725530460476875,0.21806518733501434,-0.007407653145492077
1747237109674541300,5.934541259765625,0.03682052716612816,0.25862354040145874,0.011988415382802486
1747237109684572200,5.944572265625,0.018084261566400528,0.23584364354610443,0.017196862027049065
1747237109694603300,5.954603271484375,-0.00684718694537878,0.1900191605091095,-0.0035963007248938084
1747237109704634000,5.964634033203125,-0.06592768430709839,0.16796734929084778,-0.04046130180358887
1747237109714664200,5.974664306640625,-0.11923778057098389,0.17770786583423615,-0.0667368546128273
1747237109724695300,5.9846953125,-0.21011808514595032,0.30996739864349365,-0.09320595115423203
1747237109734726100,5.99472607421875,-0.15965251624584198,0.40493547916412354,-0.05971669778227806
1747237109744757200,6.00475732421875,-0.15471680462360382,0.2474678009748459,0.027546703815460205
1747237109754788000,6.0147880859375,-0.10632770508527756,0.1767321228981018,0.05602708458900452
1747237109764819200,6.024819091796875,-0.03466211259365082,0.18467502295970917,0.05274992436170578
1747237109774850000,6.03485009765625,-0.023367643356323242,0.18697145581245422,0.03408090025186539
1747237109784881200,6.044881103515625,-0.006629008799791336,0.24731366336345673,0.0021026565227657557
1747237109794912000,6.054912109375,-0.024364596232771873,0.28388819098472595,-0.0099793067201972
1747237109804943000,6.064943115234375,-0.047316186130046844,0.2600519061088562,-0.015025672502815723
1747237109814973200,6.07497314453125,-0.0928112342953682,0.25157347321510315,-0.02424793317914009
1747237109825004000,6.085004150390625,-0.1246863380074501,0.19335496425628662,-0.03667758032679558
1747237109835035100,6.09503515625,-0.25401556491851807,0.18079602718353271,-0.06979851424694061
1747237109845066000,6.10506591796875,-0.17689275741577148,0.16715791821479797,-0.09351252764463425
1747237109855097300,6.115097412109375,-0.05555860325694084,0.2610684335231781,-0.09581269323825836
1747237109865128200,6.125128173828125,-0.003058377653360367,0.16042374074459076,-0.046198226511478424
1747237109875159300,6.1351591796875,0.004105525556951761,0.023155365139245987,0.01382143422961235
1747237109885190100,6.145190185546875,-0.019702332094311714,-0.03935427963733673,0.024203892797231674
1747237109895221200,6.15522119140625,-0.040466200560331345,0.03338490426540375,-0.008545797318220139
1747237109905252000,6.165252197265625,-0.04027731716632843,0.115027517080307,-0.02657822147011757
1747237109915282200,6.1752822265625,-0.029298702254891396,0.13485580682754517,-0.005882264580577612
1747237109925313300,6.185313232421875,-0.04014595225453377,0.12085676938295364,0.011644449084997177
1747237109935344000,6.19534423828125,-0.08701066672801971,0.05667165666818619,0.03181816264986992
1747237109945375200,6.205375244140625,-0.13050894439220428,-0.00412779301404953,0.022433748468756676
1747237109955406000,6.215406005859375,-0.14758193492889404,-0.04508161544799805,-0.00376856024377048
1747237109965437200,6.225437255859375,-0.14541345834732056,-0.0670737698674202,-0.029731115326285362
1747237109975468000,6.235468017578125,-0.07646901160478592,-0.07406403124332428,-0.03325394541025162
1747237109985499100,6.2454990234375,-0.07687021791934967,-0.17945781350135803,-0.015461435541510582
1747237109995530200,6.2555302734375,0.04744800925254822,-0.12270770221948624,-0.007208032533526421
1747237110005561000,6.26556103515625,0.01525871641933918,-0.12508992850780487,0.022448265925049782
1747237110015592200,6.27559228515625,0.004904878791421652,-0.13923291862010956,0.0302012600004673
1747237110025622000,6.2856220703125,0.0022829282097518444,-0.11366242915391922,0.017739348113536835
1747237110035653000,6.295653076171875,-0.01668756827712059,-0.07722479104995728,0.0027153908740729094
1747237110045684200,6.305684326171875,-0.06286391615867615,-0.041146546602249146,0.007090247701853514
1747237110055715000,6.315715087890625,-0.09702082723379135,-0.028620636090636253,0.01942414604127407
1747237110065746200,6.32574609375,-0.1257576048374176,-0.03258081153035164,0.017658574506640434
1747237110075777300,6.33577734375,-0.13618014752864838,-0.015631388872861862,0.01636640727519989
1747237110085808400,6.345808349609375,-0.16936147212982178,-0.060545846819877625,0.01516954880207777
1747237110095839200,6.355839111328125,-0.18760384619235992,-0.09499756991863251,-0.0030238358303904533
1747237110105870300,6.365870361328125,-0.10252431780099869,-0.10518345236778259,-0.03458095341920853
1747237110115900200,6.375900146484375,0.010961233638226986,-0.09565572440624237,-0.0021471113432198763
1747237110125931300,6.38593115234375,-0.06606915593147278,-0.13508903980255127,0.040466148406267166
1747237110135962400,6.39596240234375,-0.12189354002475739,-0.08524610102176666,0.05747602507472038
1747237110145993200,6.4059931640625,-0.16156414151191711,-0.06433739513158798,0.0479598194360733
1747237110156024300,6.4160244140625,-0.13765133917331696,-0.04713071137666702,0.03133370727300644
1747237110166055200,6.42605517578125,-0.1186862364411354,-0.041323862969875336,0.030212504789233208
1747237110176086300,6.436086181640625,-0.05891212075948715,-0.02841418981552124,0.0417245514690876
1747237110186117000,6.4461171875,-0.043013643473386765,-0.07186505198478699,0.06854145973920822
1747237110196148200,6.456148193359375,-0.12417613714933395,-0.1533290296792984,0.0726533830165863
1747237110206179000,6.466178955078125,-0.15126381814479828,-0.15454848110675812,0.03210372477769852
1747237110216210200,6.476210205078125,-0.20698487758636475,-0.16280028223991394,0.0039810072630643845
1747237110226240300,6.486240234375,-0.24120435118675232,-0.17807066440582275,-0.023497942835092545
1747237110236271000,6.49627099609375,-0.14790503680706024,-0.14592763781547546,-0.029457032680511475
1747237110246302200,6.50630224609375,-0.06866654753684998,-0.15452329814434052,0.0007952162413857877
1747237110256333000,6.5163330078125,0.01375269703567028,-0.18543966114521027,0.04630570858716965
1747237110266364200,6.5263642578125,-0.027627499774098396,-0.20011059939861298,0.09824857860803604
1747237110276395000,6.53639501953125,0.009381916373968124,-0.22873905301094055,0.10001052916049957
1747237110286426000,6.546426025390625,0.03589262068271637,-0.2394312173128128,0.09824969619512558
1747237110296457200,6.556457275390625,0.0600283145904541,-0.29005682468414307,0.11524412781000137
1747237110306489000,6.566489013671875,0.05566759034991264,-0.33505183458328247,0.1706949770450592
1747237110316520000,6.57652001953125,0.07968851178884506,-0.4402834475040436,0.23645880818367004
1747237110326551000,6.586551025390625,0.10527867823839188,-0.5931910872459412,0.2808564007282257
1747237110336580900,6.596580810546875,0.140526682138443,-0.7430570125579834,0.3114776909351349
1747237110346612000,6.606612060546875,0.27887824177742004,-0.8974055647850037,0.3154957592487335
1747237110356643000,6.61664306640625,0.436792254447937,-0.9439088702201843,0.24535341560840607
1747237110366674000,6.626673828125,0.571040689945221,-0.8298736810684204,0.20656244456768036
1747237110376705300,6.636705322265625,0.8316315412521362,-0.6063971519470215,0.20017804205417633
1747237110386736000,6.646736083984375,0.9980507493019104,-0.3334014415740967,0.1923387199640274
1747237110396767200,6.656767333984375,0.8236038684844971,-0.002202723640948534,0.11093972623348236
1747237110406798000,6.666798095703125,0.6287273168563843,0.45871978998184204,0.07948095351457596
1747237110416829200,6.6768291015625,0.49431705474853516,0.9194983243942261,0.12167420983314514
1747237110426860000,6.686860107421875,0.41936802864074707,1.267930030822754,0.18208865821361542
1747237110436891100,6.69689111328125,0.3277316093444824,1.2275389432907104,0.2961116433143616
1747237110446921200,6.706921142578125,0.15976029634475708,1.1055405139923096,0.43514156341552734
1747237110456952000,6.7169521484375,-0.025712352246046066,1.2836958169937134,0.5536026954650879
1747237110466983200,6.726983154296875,-0.12196645140647888,1.2202184200286865,0.44561582803726196
1747237110477014000,6.737013916015625,-0.22007198631763458,1.1701757907867432,0.32190054655075073
1747237110487045000,6.747045166015625,-0.24679133296012878,1.151554822921753,0.2624412178993225
1747237110497076000,6.757075927734375,-0.18890194594860077,0.91313636302948,0.15140660107135773
1747237110507107000,6.767107177734375,-0.06001433730125427,0.4657790958881378,-0.02847232110798359
1747237110517138000,6.777137939453125,0.11987686902284622,0.13610504567623138,-0.12287578731775284
1747237110527169000,6.7871689453125,0.3181481957435608,0.061536505818367004,-0.149376779794693
1747237110537199900,6.797199951171875,0.5329833030700684,0.10061706602573395,-0.18185721337795258
1747237110547231000,6.80723095703125,0.798604428768158,0.20093096792697906,-0.30175429582595825
1747237110557261000,6.817260986328125,0.8509195446968079,0.17954765260219574,-0.24608011543750763
1747237110567292000,6.8272919921875,0.7209064960479736,-0.17945954203605652,-0.10815860331058502
1747237110577323000,6.837322998046875,0.5138635635375977,-0.5299555063247681,0.09143093973398209
1747237110587353900,6.847353759765625,0.24074196815490723,-0.600676953792572,0.2962925136089325
1747237110597385200,6.85738525390625,0.0131242536008358,-0.6414936184883118,0.37954986095428467
1747237110607416000,6.867416015625,-0.2615543007850647,0.13829973340034485,0.5841968059539795
1747237110617447200,6.877447265625,-0.31121107935905457,0.5116897821426392,0.5313383936882019
1747237110627478000,6.88747802734375,-0.18090413510799408,0.3254248797893524,0.22803226113319397
1747237110637509000,6.897509033203125,-0.054623428732156754,0.22345246374607086,0.1302116960287094
1747237110647540000,6.9075400390625,-0.038893599063158035,0.10259930789470673,0.1287442147731781
1747237110657571000,6.917571044921875,-0.06539178639650345,0.03584664314985275,0.1499272733926773
1747237110667601200,6.92760107421875,-0.08989612758159637,0.08055992424488068,0.1893080621957779
1747237110677632000,6.937632080078125,-0.11391011625528336,0.14180436730384827,0.19716598093509674
1747237110687663000,6.9476630859375,-0.1400810033082962,0.1932016760110855,0.1652669459581375
1747237110697694000,6.95769384765625,-0.15052752196788788,0.21474558115005493,0.1222694143652916
1747237110707725000,6.96772509765625,-0.1303243190050125,0.15696360170841217,0.07882685959339142
1747237110717756200,6.977756103515625,-0.11850547045469284,0.09161069989204407,0.05493936315178871
1747237110727787000,6.987787109375,-0.10832533985376358,0.0146213099360466,0.05973592400550842
1747237110737818000,6.997818115234375,-0.10633755475282669,-0.04026510939002037,0.07783849537372589
1747237110747849000,7.007848876953125,-0.08808252215385437,-0.05115458369255066,0.07870586216449738
1747237110757880000,7.017880126953125,-0.06100109964609146,-0.03889765590429306,0.06941861659288406
1747237110767911000,7.027910888671875,-0.04053790494799614,-0.0063676307909190655,0.04767986387014389
1747237110777942000,7.03794189453125,-0.022585269063711166,0.0002750917337834835,0.01784260757267475
1747237110787972000,7.04797216796875,-0.015116767957806587,-0.007711745332926512,0.0006817655521444976
1747237110798003000,7.0580029296875,-0.02252195216715336,-0.009166629984974861,-0.002104433486238122
1747237110808034000,7.068033935546875,-0.036632977426052094,-0.002711814595386386,0.0038058718200773
1747237110818065200,7.078065185546875,-0.046753790229558945,0.004494166933000088,0.011052333749830723
1747237110828096300,7.08809619140625,-0.05786249414086342,-0.002915822435170412,0.01455448754131794
1747237110838127000,7.098127197265625,-0.059773046523332596,-0.01943594217300415,0.009430831298232079
1747237110848158200,7.108158203125,-0.060507748275995255,-0.03357955068349838,0.002255754778161645
1747237110858189000,7.11818896484375,-0.061892326921224594,-0.04425589740276337,-0.0013075546594336629
1747237110868220200,7.12822021484375,-0.0587964691221714,-0.046134356409311295,0.00034795142710208893
1747237110878251000,7.1382509765625,-0.057967960834503174,-0.05439122021198273,0.0023075053468346596
1747237110888282000,7.1482822265625,-0.05438021570444107,-0.06639308482408524,0.0049596866592764854
1747237110898312200,7.158312255859375,-0.05268724262714386,-0.08638755977153778,0.008346695452928543
1747237110908343000,7.168343017578125,-0.04929743707180023,-0.11481939256191254,0.015461886301636696
1747237110918374100,7.1783740234375,-0.04710325971245766,-0.15028870105743408,0.02210061438381672
1747237110928405000,7.188405029296875,-0.04423457011580467,-0.16684746742248535,0.022224755957722664
1747237110938436000,7.19843603515625,-0.052910350263118744,-0.1333978921175003,0.025192314758896828
1747237110948467000,7.208467041015625,-0.05727926269173622,-0.10402071475982666,0.0211168322712183
1747237110958498000,7.218498046875,-0.05704517289996147,-0.11555859446525574,0.016451505944132805
1747237110968529000,7.22852880859375,-0.05403060466051102,-0.13891816139221191,0.0037700894754379988
1747237110978560000,7.23856005859375,-0.05121777579188347,-0.1319444179534912,-0.01853068731725216
1747237110988590800,7.2485908203125,-0.06162308156490326,-0.11188367754220963,-0.02614632435142994
1747237110998622000,7.2586220703125,-0.08363490551710129,-0.12624983489513397,-0.010645129717886448
1747237111008653000,7.268653076171875,-0.0930231511592865,-0.17339764535427094,0.010857801884412766
1747237111018683000,7.278682861328125,-0.09415153414011002,-0.18417572975158691,0.020195910707116127
1747237111028714000,7.2887138671875,-0.09633811563253403,-0.15133850276470184,0.010695590637624264
1747237111038745000,7.2987451171875,-0.10304874926805496,-0.09406668692827225,-0.00581494253128767
1747237111048776200,7.308776123046875,-0.12411715090274811,-0.05114566907286644,-0.013860909268260002
1747237111058807000,7.31880712890625,-0.1496448814868927,-0.03049684874713421,-0.00766639644280076
1747237111068838100,7.328838134765625,-0.16793029010295868,-0.030147254467010498,0.008571936748921871
1747237111078869000,7.338868896484375,-0.17464996874332428,-0.051134560257196426,0.02845909260213375
1747237111088900000,7.348900146484375,-0.173512801527977,-0.06960970908403397,0.042867325246334076
1747237111098931200,7.35893115234375,-0.16792362928390503,-0.06893140077590942,0.04428119957447052
1747237111108962000,7.368962158203125,-0.1473185420036316,-0.055306531488895416,0.030579321086406708
1747237111118993200,7.3789931640625,-0.12204887717962265,-0.030695462599396706,0.007479061372578144
1747237111129024000,7.38902392578125,-0.09700123965740204,0.007176481653004885,-0.00795925222337246
1747237111139054000,7.39905419921875,-0.08694754540920258,0.03795330226421356,-0.013785448856651783
1747237111149085000,7.4090849609375,-0.08100283890962601,0.048810187727212906,-0.005771750584244728
1747237111159116000,7.419115966796875,-0.07288392633199692,0.04923682659864426,0.0050148507580161095
1747237111169147100,7.429147216796875,-0.06790540367364883,0.05247773975133896,0.01446130033582449
1747237111179178000,7.439177978515625,-0.06326724588871002,0.0612667016685009,0.02225690521299839
1747237111189209000,7.449208984375,-0.0564478263258934,0.07093534618616104,0.026127470657229424
1747237111199240000,7.459239990234375,-0.053208887577056885,0.08170437067747116,0.03180373087525368
1747237111209271000,7.46927099609375,-0.05063900351524353,0.07962842285633087,0.03839801996946335
1747237111219302100,7.47930224609375,-0.047661591321229935,0.07091615349054337,0.04345935955643654
1747237111229333200,7.489333251953125,-0.04791146144270897,0.06310056149959564,0.04792844504117966
1747237111239364000,7.499364013671875,-0.04691091179847717,0.06376528739929199,0.05256394296884537
1747237111249395200,7.509395263671875,-0.045769546180963516,0.07601181417703629,0.052228424698114395
1747237111259425300,7.51942529296875,-0.041607558727264404,0.08282897621393204,0.052464913576841354
1747237111269456100,7.5294560546875,-0.04044375941157341,0.08115246891975403,0.06307351589202881
1747237111279487200,7.5394873046875,-0.0378064289689064,0.07183752954006195,0.06879079341888428
1747237111289518000,7.54951806640625,-0.03059605322778225,0.05194374918937683,0.07070499658584595
1747237111299549200,7.559549072265625,-0.020027298480272293,0.02395365759730339,0.07619749754667282
1747237111309580000,7.569580078125,-0.012229830026626587,0.002237222157418728,0.08192765712738037
1747237111319611100,7.579611083984375,-0.003403315320611,-0.02245241031050682,0.08603371679782867
1747237111329642000,7.58964208984375,0.008032631129026413,-0.0382998026907444,0.08767285197973251
1747237111339673000,7.599673095703125,0.02474716305732727,-0.05302202329039574,0.09045186638832092
1747237111349704000,7.609703857421875,0.03386802226305008,-0.0668170228600502,0.09401678293943405
1747237111359735000,7.619735107421875,0.04014003276824951,-0.0793442651629448,0.09407271444797516
1747237111369766000,7.629765869140625,0.04925310239195824,-0.08592139184474945,0.08963075280189514
1747237111379797000,7.639796875,0.05388593673706055,-0.08908575773239136,0.08792100101709366
1747237111389827000,7.6498271484375,0.05409685894846916,-0.07356318831443787,0.08482626080513
1747237111399858000,7.65985791015625,0.05173223838210106,-0.061207450926303864,0.08071088045835495
1747237111409889000,7.669888916015625,0.05421530827879906,-0.05187275633215904,0.0735521987080574
1747237111419920000,7.679919921875,0.04303961992263794,-0.0434449166059494,0.07176681607961655
1747237111429951000,7.689950927734375,0.039040613919496536,-0.04138902202248573,0.061769187450408936
1747237111439982000,7.699982177734375,0.029765091836452484,-0.0341058112680912,0.05613100901246071
1747237111450013200,7.71001318359375,0.02447611838579178,-0.0049070511013269424,0.04762744903564453
1747237111460044000,7.7200439453125,0.02261856384575367,0.011647425591945648,0.029129663482308388
1747237111470075100,7.7300751953125,0.038654256612062454,0.02270924113690853,0.018416782841086388
1747237111480106200,7.740106201171875,0.04499524459242821,0.0324886329472065,0.01042570173740387
1747237111490137000,7.75013720703125,0.057278141379356384,0.04074850678443909,-0.0018706208793446422
1747237111500168200,7.760168212890625,0.06425748765468597,0.04881282150745392,-0.011918728239834309
1747237111510198000,7.770197998046875,0.06514611840248108,0.06102591007947922,-0.020036054775118828
1747237111520229000,7.78022900390625,0.06042087450623512,0.07134459167718887,-0.02539246901869774
1747237111530260000,7.790260009765625,0.05204989016056061,0.08538960665464401,-0.027625607326626778
1747237111540291000,7.800291015625,0.038854457437992096,0.09709712862968445,-0.033143941313028336
1747237111550322200,7.810322265625,0.028104275465011597,0.10889926552772522,-0.03187790513038635
1747237111560353000,7.82035302734375,0.022578749805688858,0.11131475120782852,-0.03491390869021416
1747237111570384100,7.830384033203125,0.015788355842232704,0.11378113925457001,-0.03049633279442787
1747237111580415000,7.8404150390625,0.010174944065511227,0.11245275288820267,-0.028724264353513718
1747237111590446000,7.850446044921875,0.009739781729876995,0.11419636756181717,-0.03254074603319168
1747237111600477000,7.860476806640625,0.012440493330359459,0.11936450004577637,-0.03440309315919876
1747237111610508000,7.870508056640625,0.01233450137078762,0.1251412332057953,-0.03920784592628479
1747237111620539000,7.880538818359375,0.013196833431720734,0.1299186795949936,-0.03506263718008995
1747237111630569000,7.89056884765625,0.005605691112577915,0.12918324768543243,-0.02943635731935501
1747237111640600000,7.90060009765625,-0.0003187765832990408,0.11831621825695038,-0.024167027324438095
1747237111650631000,7.910630859375,-0.005181109067052603,0.11292493343353271,-0.012723460793495178
1747237111660662300,7.920662353515625,-0.008057856000959873,0.09970179945230484,0.0017311121337115765
1747237111670693000,7.930693115234375,-0.01257697306573391,0.09044849872589111,0.013155757449567318
1747237111680724200,7.94072412109375,-0.017953628674149513,0.07999745011329651,0.031232496723532677
1747237111690755000,7.950755126953125,-0.01982756145298481,0.06567542254924774,0.04665643349289894
1747237111700786200,7.9607861328125,-0.02115488052368164,0.052603304386138916,0.06346284598112106
1747237111710817000,7.970817138671875,-0.018821686506271362,0.042414046823978424,0.0741807371377945
1747237111720848100,7.98084814453125,-0.017336441203951836,0.04039723426103592,0.08542460948228836
1747237111730879000,7.99087890625,-0.011453383602201939,0.04760602489113808,0.09488509595394135
1747237111740910000,8.00091015625,-0.003733679186552763,0.05347936227917671,0.10574972629547119
1747237111750941000,8.01094091796875,-0.001319324248470366,0.078619584441185,0.11456295847892761
1747237111760971000,8.020970947265624,-0.0003217040793970227,0.09327096492052078,0.12442118674516678
1747237111771002000,8.031002197265625,0.0017630851361900568,0.10482563823461533,0.127360999584198
1747237111781033000,8.041032958984376,0.005661953240633011,0.11095676571130753,0.136065274477005
1747237111791064000,8.05106396484375,0.0442952997982502,0.114725761115551,0.1455884724855423
1747237111801095000,8.061094970703126,0.10226459056138992,0.1130485013127327,0.15296170115470886
1747237111811126000,8.0711259765625,0.11512739211320877,0.10424387454986572,0.16274145245552063
1747237111821156900,8.081156982421875,0.11991894990205765,0.0715370625257492,0.17095278203487396
1747237111831188000,8.09118798828125,0.11427251994609833,0.05323748290538788,0.18179728090763092
1747237111841219000,8.101218994140625,0.09981128573417664,0.054004471749067307,0.18733879923820496
1747237111851250200,8.111250244140624,0.08615759015083313,0.06866022199392319,0.18458285927772522
1747237111861281300,8.12128125,0.08768491446971893,0.060161273926496506,0.16596709191799164
1747237111871312100,8.13131201171875,0.09092012047767639,0.05454333499073982,0.14618059992790222
1747237111881343200,8.14134326171875,0.10379357635974884,0.06401140987873077,0.12987273931503296
1747237111891373000,8.151373046875,0.12256506830453873,0.10027842968702316,0.11221437156200409
1747237111901404200,8.161404052734374,0.17148813605308533,0.14398783445358276,0.09846047312021255
1747237111911435000,8.17143505859375,0.2500569224357605,0.13808247447013855,0.07667282223701477
1747237111921466000,8.181466064453126,0.32944467663764954,0.11541230976581573,0.052144575864076614
1747237111931497200,8.191497314453125,0.37271445989608765,0.09290378540754318,0.02667423151433468
1747237111941528000,8.201528076171876,0.3617302477359772,0.05096884444355965,0.010550389997661114
1747237111951559200,8.21155908203125,0.3138051927089691,0.024187220260500908,-0.006081609521061182
1747237111961590000,8.221590087890625,0.24707436561584473,0.01187196560204029,-0.02500310353934765
1747237111971621000,8.23162109375,0.1724683791399002,0.017054850235581398,-0.049660880118608475
1747237111981652000,8.24165185546875,0.0834418386220932,0.008774284273386002,-0.07646426558494568
1747237111991683000,8.25168310546875,-0.014571547508239746,-0.009241201914846897,-0.09907077252864838
1747237112001714000,8.2617138671875,-0.03597190976142883,-0.0156578216701746,-0.11181746423244476
1747237112011744000,8.271743896484375,-0.019634483382105827,0.011180604808032513,-0.11530668288469315
1747237112021775000,8.281775146484375,-0.0026301988400518894,0.04111932963132858,-0.11164510250091553
1747237112031806000,8.291805908203125,-0.00037436780985444784,0.050248898565769196,-0.11594229191541672
1747237112041837000,8.301837158203124,-0.004707064479589462,0.044055186212062836,-0.12490862607955933
1747237112051868000,8.311867919921875,-0.007600190117955208,0.036662813276052475,-0.13339726626873016
1747237112061899000,8.32189892578125,-0.014947851188480854,0.024384312331676483,-0.1460864245891571
1747237112071930000,8.33193017578125,-0.01850949600338936,0.021792475134134293,-0.14931751787662506
1747237112081961200,8.341961181640626,-0.015068424865603447,0.02545218914747238,-0.15506009757518768
1747237112091992000,8.351991943359375,-0.004632229916751385,0.024575117975473404,-0.15426325798034668
1747237112102023200,8.362023193359375,0.004775919485837221,0.023124493658542633,-0.14949727058410645
1747237112112054000,8.372053955078124,0.019170237705111504,0.01622837595641613,-0.14547953009605408
1747237112122085000,8.382085205078125,0.03418434411287308,0.014223016798496246,-0.14605611562728882
1747237112132116000,8.392115966796876,0.04834330081939697,0.010646391659975052,-0.14742311835289001
1747237112142146000,8.40214599609375,0.0555543452501297,0.015783628448843956,-0.14936375617980957
1747237112152177200,8.41217724609375,0.058125562965869904,0.023567520081996918,-0.143272265791893
1747237112162208000,8.4222080078125,0.05570368096232414,0.030904527753591537,-0.1427425593137741
1747237112172239000,8.432239013671875,0.04518639296293259,0.03942451253533363,-0.13449959456920624
1747237112182270000,8.44227001953125,0.03312200307846069,0.042377956211566925,-0.1275458037853241
1747237112192301000,8.452301025390625,0.026420360431075096,0.03895269334316254,-0.11501938104629517
1747237112202332000,8.462331787109376,0.02024528943002224,0.02951258420944214,-0.10777265578508377
1747237112212363000,8.472363037109375,0.01789824478328228,0.017699601128697395,-0.09044080227613449
1747237112222394000,8.48239404296875,0.013059815391898155,-0.003575326409190893,-0.07593455910682678
1747237112232425000,8.492425048828125,0.0028348080813884735,-0.030673740431666374,-0.060649994760751724
1747237112242456000,8.5024560546875,-0.006681731902062893,-0.04655230790376663,-0.046022847294807434
1747237112252487000,8.51248681640625,-0.023513376712799072,-0.04829768091440201,-0.030338363721966743
1747237112262518300,8.522518310546875,-0.03078433871269226,-0.046342119574546814,-0.01900874450802803
1747237112272549000,8.532549072265626,-0.04294859245419502,-0.04429031163454056,-0.004138236865401268
1747237112282579000,8.542578857421875,-0.05119666829705238,-0.04805256053805351,0.011072407476603985
1747237112292610000,8.552610107421875,-0.050778619945049286,-0.06705374270677567,0.02247519977390766
1747237112302641200,8.56264111328125,-0.045955903828144073,-0.09565742313861847,0.03993009030818939
1747237112312671700,8.572671630859375,-0.03758811578154564,-0.12057798355817795,0.0522875040769577
1747237112322702600,8.58270263671875,-0.023112770169973373,-0.14435628056526184,0.0565355122089386
1747237112332733700,8.592733642578125,-0.0013662620913237333,-0.17405405640602112,0.06297630071640015
1747237112342764500,8.6027646484375,0.020419195294380188,-0.19152839481830597,0.06823790818452835
1747237112352795600,8.612795654296875,0.03812681883573532,-0.19214974343776703,0.07199153304100037
1747237112362826500,8.622826416015625,0.049207963049411774,-0.17621152102947235,0.07194918394088745
1747237112372857600,8.632857666015624,0.054972775280475616,-0.14369025826454163,0.07305681705474854
1747237112382888400,8.642888427734375,0.058029819279909134,-0.11979105323553085,0.07809498906135559
1747237112392919600,8.65291943359375,0.059193819761276245,-0.09928301721811295,0.08236376196146011
1747237112402950400,8.662950439453125,0.06045030057430267,-0.09235800057649612,0.08923418074846268
1747237112412980500,8.67298046875,0.06377991288900375,-0.08472945541143417,0.10030411183834076
1747237112423011600,8.683011474609375,0.07373134791851044,-0.0886690691113472,0.10272333025932312
1747237112433042400,8.69304248046875,0.0790145993232727,-0.0816197320818901,0.10183048993349075
1747237112443073500,8.703073486328124,0.08234541863203049,-0.07068825513124466,0.09940861165523529
1747237112453104400,8.7131044921875,0.08211617916822433,-0.05121409147977829,0.10163001716136932
1747237112463135500,8.723135498046876,0.1126951277256012,-0.06685669720172882,0.0797865018248558
1747237112473166600,8.73316650390625,0.15257969498634338,-0.10240237414836884,0.03370460867881775
1747237112483197400,8.743197509765626,0.18759654462337494,-0.10621282458305359,0.010018985718488693
1747237112493228800,8.753228759765625,0.207379549741745,-0.05445238575339317,0.024602824822068214
1747237112503259600,8.763259765625,0.2376924604177475,0.009126324206590652,0.05193990841507912
1747237112513290800,8.773290771484374,0.2801898717880249,0.07479184120893478,0.0782768726348877
1747237112523321600,8.783321533203125,0.31249454617500305,0.15981698036193848,0.10859908908605576
1747237112533352700,8.793352783203124,0.3188692033290863,0.28562095761299133,0.14986750483512878
1747237112543383600,8.803383544921875,0.33622822165489197,0.33046138286590576,0.15124516189098358
1747237112553413600,8.81341357421875,0.35342392325401306,0.2637699842453003,0.1049615889787674
1747237112563444700,8.82344482421875,0.32793986797332764,0.13682159781455994,0.03900015354156494
1747237112573475600,8.8334755859375,0.23066763579845428,-0.009366963058710098,-0.02324526570737362
1747237112583506700,8.843506591796874,0.10103347897529602,-0.14131541550159454,-0.05532543733716011
1747237112593537500,8.85353759765625,-0.026812033727765083,-0.21579928696155548,-0.02379482612013817
1747237112603568600,8.863568603515626,-0.1309213936328888,-0.20506221055984497,0.051744673401117325
1747237112613599500,8.873599609375,-0.19532747566699982,-0.1315164864063263,0.13808533549308777
1747237112623630600,8.883630615234376,-0.2379463165998459,-0.05466725677251816,0.20414982736110687
1747237112633661400,8.893661376953125,-0.2620444595813751,-0.0036257521715015173,0.22875241935253143
1747237112643692500,8.903692626953125,-0.2763299345970154,-0.015673626214265823,0.19974660873413086
1747237112653723400,8.913723388671874,-0.279779314994812,-0.04938994720578194,0.13097234070301056
1747237112663754500,8.92375439453125,-0.285870760679245,-0.05437059327960014,0.05132677033543587
1747237112673785300,8.933785400390626,-0.28477999567985535,-0.0004999679513275623,-0.008767790161073208
1747237112683816700,8.943816650390625,-0.2644864320755005,0.04890939220786095,-0.027750002220273018
1747237112693847600,8.95384765625,-0.230708509683609,0.07619257271289825,-0.01355503685772419
1747237112703877400,8.96387744140625,-0.20131972432136536,0.08443691581487656,0.009175309911370277
1747237112713908700,8.97390869140625,-0.18154215812683105,0.08398143947124481,0.014060319401323795
1747237112723939600,8.983939697265624,-0.17126502096652985,0.09184867888689041,-0.0019838938023895025
1747237112733970700,8.993970703125,-0.17025288939476013,0.10092310607433319,-0.03508344665169716
1747237112744001500,9.00400146484375,-0.17353495955467224,0.12105446308851242,-0.06369432061910629
1747237112754032600,9.01403271484375,-0.17090602219104767,0.14348924160003662,-0.07842647284269333
1747237112764063500,9.0240634765625,-0.16107922792434692,0.1724013239145279,-0.07730154693126678
1747237112774094600,9.034094482421875,-0.14125771820545197,0.19062502682209015,-0.05867132917046547
1747237112784125400,9.04412548828125,-0.11929089576005936,0.2006092220544815,-0.039749301970005035
1747237112794156500,9.054156494140624,-0.09750271588563919,0.19258460402488708,-0.022803382948040962
1747237112804187600,9.064187744140625,-0.08934305608272552,0.1734095811843872,-0.014326275326311588
1747237112814218500,9.074218505859376,-0.07673625648021698,0.15128034353256226,-0.012237674556672573
1747237112824249600,9.08424951171875,-0.06498079746961594,0.12392248958349228,-0.02056111767888069
1747237112834280400,9.094280517578126,-0.054279010742902756,0.0967036709189415,-0.02887932024896145
1747237112844311600,9.1043115234375,-0.04138931259512901,0.0683620423078537,-0.034337472170591354
1747237112854341600,9.114341552734375,-0.03723977506160736,0.04662118852138519,-0.03471226617693901
1747237112864372500,9.12437255859375,-0.037391841411590576,0.03521939739584923,-0.02972310036420822
1747237112874403600,9.134403564453125,-0.04696683958172798,0.014481237158179283,-0.019614670425653458
1747237112884434400,9.144434326171876,-0.05544927343726158,-0.005601394455879927,-0.011289362795650959
1747237112894465500,9.154465576171875,-0.06635911017656326,-0.028363211080431938,-0.0000922505569178611
1747237112904496600,9.16449658203125,-0.0737810730934143,-0.042677704244852066,0.013186803087592125
1747237112914527700,9.17452783203125,-0.06911887973546982,-0.06329210102558136,0.02896583080291748
1747237112924558600,9.18455859375,-0.05971658602356911,-0.07313035428524017,0.03943658247590065
1747237112934589700,9.194589599609374,-0.04507100209593773,-0.07282614707946777,0.044700123369693756
1747237112944620500,9.20462060546875,-0.034809041768312454,-0.059414997696876526,0.04159567877650261
1747237112954651600,9.214651611328126,-0.019990412518382072,-0.03344093635678291,0.039784986525774
1747237112964682500,9.2246826171875,-0.01242463942617178,-0.007903353311121464,0.030641822144389153
1747237112974713600,9.234713623046876,-0.002469077240675688,0.0068555413745343685,0.024636102840304375
1747237112984744400,9.244744384765625,0.004627980757504702,0.008614292368292809,0.01684928499162197
1747237112994775600,9.254775634765625,0.018045984208583832,0.012125827372074127,0.009210372343659401
1747237113004806400,9.264806396484374,0.01918768137693405,0.009056534618139267,0.008888928219676018
1747237113014836500,9.27483642578125,0.021157819777727127,0.008786803111433983,0.011030524037778378
1747237113024867600,9.28486767578125,0.012925988994538784,0.014822058379650116,0.011049432680010796
1747237113034898400,9.2948984375,0.002277872757986188,0.017313603311777115,0.011919806711375713
1747237113044929500,9.304929443359375,-0.013290701434016228,0.015888012945652008,0.009392733685672283
1747237113054960400,9.31496044921875,-0.028955481946468353,0.01631341502070427,0.007328503765165806
1747237113064991500,9.324991455078125,-0.029636185616254807,0.0161440372467041,-0.002819737885147333
1747237113075022300,9.335022216796874,-0.02592933364212513,0.012101417407393456,-0.010305778123438358
1747237113085053400,9.345053466796875,-0.017784321680665016,0.008117329329252243,-0.021370945498347282
1747237113095084500,9.35508447265625,-0.010651374235749245,0.007742281071841717,-0.03377761319279671
1747237113105115600,9.36511572265625,-0.007492865435779095,0.010970297269523144,-0.046098463237285614
1747237113115146800,9.375146728515626,-0.005880921147763729,0.007419598754495382,-0.05206741765141487
1747237113125177600,9.385177490234375,-0.009483112953603268,0.0030538788996636868,-0.058958616107702255
1747237113135208700,9.395208740234375,-0.009548025205731392,-0.003909534774720669,-0.06426271051168442
1747237113145239600,9.405239501953124,-0.005085366778075695,-0.008973801508545876,-0.0761348158121109
1747237113155270700,9.415270751953125,-0.0012093372642993927,-0.013794688507914543,-0.08265703916549683
1747237113165301500,9.425301513671876,0.007637684233486652,-0.02087150514125824,-0.08699293434619904
1747237113175331600,9.43533154296875,0.018777286633849144,-0.035988595336675644,-0.08832982182502747
1747237113185362700,9.44536279296875,0.029674410820007324,-0.057608671486377716,-0.0918678268790245
1747237113195393500,9.4553935546875,0.04952361434698105,-0.09433123469352722,-0.10267315059900284
1747237113205424600,9.465424560546875,0.07126939296722412,-0.122991643846035,-0.10769614577293396
1747237113215455500,9.47545556640625,0.09829621016979218,-0.14556747674942017,-0.1125059649348259
1747237113225486600,9.485486572265625,0.12419598549604416,-0.15565446019172668,-0.11107505112886429
1747237113235517400,9.495517333984376,0.1470310539007187,-0.15025301277637482,-0.11403120309114456
1747237113245548500,9.505548583984375,0.1598730832338333,-0.1484292894601822,-0.11548848450183868
1747237113255579400,9.515579345703125,0.15865743160247803,-0.14363451302051544,-0.11261497437953949
1747237113265610500,9.525610595703125,0.13675639033317566,-0.12858818471431732,-0.10162543505430222
1747237113275641300,9.535641357421875,0.09850680083036423,-0.11074702441692352,-0.07652603834867477
1747237113285672700,9.545672607421874,0.06414909660816193,-0.08795782178640366,-0.05270858854055405
1747237113295703600,9.55570361328125,0.03691088408231735,-0.05353107303380966,-0.03329700604081154
1747237113305734000,9.56573388671875,0.016701752319931984,-0.015306721441447735,-0.022576984018087387
1747237113315765000,9.575764892578125,0.001022792188450694,0.0202732365578413,-0.014513333328068256
1747237113325795800,9.5857958984375,-0.00811078492552042,0.047076888382434845,-0.010167586617171764
1747237113335827000,9.595826904296874,-0.015146124176681042,0.0742068737745285,-0.0062990919686853886
1747237113345857000,9.60585693359375,-0.01787533052265644,0.0884702280163765,-0.0023253895342350006
1747237113355887900,9.615887939453126,-0.01437280885875225,0.09011109173297882,0.004242751747369766
1747237113365919000,9.6259189453125,-0.013981057330965996,0.08287768065929413,0.013340376317501068
1747237113375949800,9.63594970703125,-0.02208712138235569,0.06896321475505829,0.01999504305422306
1747237113385981000,9.64598095703125,-0.03299809247255325,0.04602274298667908,0.030799221247434616
1747237113396011800,9.65601171875,-0.04604744911193848,0.021161744371056557,0.038639966398477554
1747237113406043100,9.666043212890624,-0.0625140443444252,0.008502939715981483,0.032027337700128555
1747237113416074000,9.676073974609375,-0.07289450615644455,0.012248832732439041,0.02731519564986229
1747237113426105000,9.68610498046875,-0.0793558731675148,0.02619926817715168,0.017942998558282852
1747237113436136000,9.696135986328125,-0.08209726214408875,0.034333694726228714,0.014776033349335194
1747237113446167000,9.7061669921875,-0.08129750937223434,0.04670407623052597,0.015952616930007935
1747237113456198000,9.716197998046875,-0.07515806704759598,0.05139503255486488,0.019432637840509415
1747237113466229000,9.72622900390625,-0.0688096210360527,0.064066082239151,0.022635888308286667
1747237113476259800,9.736259765625,-0.061831071972846985,0.07269488275051117,0.020750688388943672
1747237113486291000,9.746291015625,-0.05486930161714554,0.07309781759977341,0.023772044107317924
1747237113496321800,9.75632177734375,-0.051008183509111404,0.07483858615159988,0.02700342983007431
1747237113506353000,9.766352783203125,-0.04749307781457901,0.07960671186447144,0.027413824573159218
1747237113516384000,9.776384033203126,-0.04621376469731331,0.0881424993276596,0.031938791275024414
1747237113526413800,9.786413818359375,-0.043473903089761734,0.0899055153131485,0.026019645854830742
1747237113536445000,9.79644482421875,-0.03980839625000954,0.08101172000169754,0.02470403164625168
1747237113546475800,9.806475830078124,-0.03897855430841446,0.06895771622657776,0.025942135602235794
1747237113556507000,9.8165068359375,-0.04124850034713745,0.065169557929039,0.02928916923701763
1747237113566538000,9.8265380859375,-0.04017844423651695,0.068877212703228,0.027747198939323425
1747237113576568800,9.83656884765625,-0.0360557995736599,0.06984155625104904,0.035775259137153625
1747237113586600000,9.846599853515626,-0.03807101398706436,0.07024635374546051,0.03815772011876106
1747237113596631000,9.856631103515625,-0.03461243584752083,0.07367952913045883,0.04419456422328949
1747237113606662100,9.866662109375,-0.029787054285407066,0.07266806066036224,0.04546009749174118
1747237113616693000,9.87669287109375,-0.026423748582601547,0.07440310716629028,0.04503772035241127
1747237113626724000,9.88672412109375,-0.017690710723400116,0.06339813023805618,0.03767940774559975
1747237113636755000,9.8967548828125,-0.009391168132424355,0.05098291486501694,0.03319865092635155
1747237113646786000,9.9067861328125,-0.00013162323739379644,0.03089042566716671,0.02580331824719906
1747237113656817000,9.91681689453125,0.008062922395765781,0.011285943910479546,0.02934873104095459
1747237113666848000,9.926847900390625,0.013941052369773388,-0.006737265270203352,0.020472414791584015
1747237113676878800,9.93687890625,0.020616931840777397,-0.009505542926490307,0.013561006635427475
1747237113686910000,9.946909912109374,0.027590684592723846,-0.002929399022832513,0.003739534877240658
1747237113696940800,9.95694091796875,0.03428154066205025,0.009291516616940498,-0.00835501216351986
1747237113706972000,9.966971923828124,0.04525083675980568,0.01918010041117668,-0.0159388966858387
1747237113717002000,9.977001953125,0.049124207347631454,0.035367920994758606,-0.024693705141544342
1747237113727032800,9.98703271484375,0.053701382130384445,0.04629194363951683,-0.029959572479128838
1747237113737064000,9.99706396484375,0.060270797461271286,0.04406174644827843,-0.031374577432870865
1747237113747094800,10.0070947265625,0.06324182450771332,0.03830479457974434,-0.029333798214793205
1747237113757126000,10.0171259765625,0.07017556577920914,0.032575786113739014,-0.024474287405610085
1747237113767156700,10.02715673828125,0.07058089226484299,0.02082298882305622,-0.01602940261363983
1747237113777187800,10.037187744140626,0.06795055419206619,0.0142030268907547,0.00044961058301851153
1747237113787219000,10.047218994140625,0.07285609841346741,-0.012861879542469978,0.006379138678312302
1747237113797250000,10.05725,0.07020671665668488,-0.03863106295466423,0.017550287768244743
1747237113807281000,10.067281005859375,0.06616031378507614,-0.0565221793949604,0.026948316022753716
1747237113817312000,10.07731201171875,0.0610649511218071,-0.0694323256611824,0.035605255514383316
1747237113827343000,10.087343017578124,0.05540706589818001,-0.07713152468204498,0.040590424090623856
1747237113837374000,10.0973740234375,0.059898488223552704,-0.09201353043317795,0.047443270683288574
1747237113847405000,10.107405029296874,0.0616372674703598,-0.1155308410525322,0.04489382728934288
1747237113857436000,10.117435791015625,0.06242629140615463,-0.12838555872440338,0.0398457907140255
1747237113867467000,10.127467041015626,0.05928376317024231,-0.12718874216079712,0.03156682103872299
1747237113877497900,10.137497802734375,0.05908868461847305,-0.11254531890153885,0.023615075275301933
1747237113887529000,10.147529052734376,0.04955430328845978,-0.08383191376924515,0.016346244141459465
1747237113897559800,10.157559814453125,0.04211875796318054,-0.05434645712375641,0.009347723796963692
1747237113907591000,10.1675908203125,0.03752586990594864,-0.032662734389305115,0.0037902388721704483
1747237113917621000,10.17762109375,0.03154474496841431,-0.01567916013300419,0.005994339007884264
1747237113927651800,10.18765185546875,0.02403676137328148,-0.0009220517240464687,-0.0019155156332999468
1747237113937683000,10.197682861328126,0.022609975188970566,0.010676143690943718,-0.005326624494045973
1747237113947713800,10.2077138671875,0.02401079796254635,0.031356386840343475,-0.008989802561700344
1747237113957745000,10.217744873046875,0.021446039900183678,0.05673634260892868,-0.016122892498970032
1747237113967775700,10.227775634765624,0.020215658470988274,0.07664906233549118,-0.021087290719151497
1747237113977807000,10.23780712890625,0.01779397949576378,0.08795465528964996,-0.024094868451356888
1747237113987838000,10.247837890625,0.014320683665573597,0.0967036709189415,-0.029794564470648766
1747237113997869000,10.257869140625,0.004113851580768824,0.11053836345672607,-0.03723176196217537
1747237114007900000,10.26789990234375,-0.00588072557002306,0.1274757981300354,-0.040031541138887405
1747237114017931000,10.277930908203125,-0.011565173976123333,0.13981924951076508,-0.047202516347169876
1747237114027961900,10.2879619140625,-0.013461877591907978,0.14080674946308136,-0.055086005479097366
1747237114037993000,10.297992919921874,-0.015217635780572891,0.1366782784461975,-0.05886011943221092
1747237114048024000,10.308024169921875,-0.01466556265950203,0.12825097143650055,-0.0610782690346241
1747237114058055000,10.318054931640624,-0.014599978923797607,0.12741123139858246,-0.061875760555267334
1747237114068086000,10.3280859375,-0.01744450256228447,0.12684476375579834,-0.061587076634168625
1747237114078116900,10.338116943359376,-0.024008596315979958,0.12523102760314941,-0.05984625965356827
1747237114088148000,10.34814794921875,-0.025736987590789795,0.11311417818069458,-0.06111392378807068
1747237114098178800,10.3581787109375,-0.029204489663243294,0.10384625196456909,-0.05722827836871147
1747237114108210000,10.3682099609375,-0.025242237374186516,0.09819023311138153,-0.04826301336288452
1747237114118240800,10.37824072265625,-0.02186787687242031,0.08873853087425232,-0.040194831788539886
1747237114128272000,10.38827197265625,-0.017501890659332275,0.09265764057636261,-0.030937418341636658
1747237114138302000,10.398302001953125,-0.0124367605894804,0.09870325028896332,-0.02710341289639473
1747237114148332800,10.408332763671876,-0.013631188310682774,0.09903854131698608,-0.013499187305569649
1747237114158364000,10.418364013671875,-0.01847328431904316,0.10583585500717163,0.0016482450300827622
1747237114168395000,10.42839501953125,-0.0237071942538023,0.11351428180932999,0.017402973026037216
1747237114178426000,10.438426025390624,-0.027531292289495468,0.10294592380523682,0.02289184369146824
1747237114188457000,10.44845703125,-0.0320967473089695,0.08407770097255707,0.030761217698454857
1747237114198488000,10.458488037109374,-0.030308770015835762,0.05542149022221565,0.03393803536891937
1747237114208519000,10.468518798828125,-0.024625850841403008,0.030101221054792404,0.034223522990942
1747237114218550000,10.478550048828126,-0.01886569708585739,0.003741410095244646,0.03614345192909241
1747237114228580900,10.488580810546875,-0.016002800315618515,-0.016929779201745987,0.035596173256635666
1747237114238612000,10.498612060546876,-0.017847971990704536,-0.028965216130018234,0.030715636909008026
1747237114248642800,10.508642822265625,-0.02238226868212223,-0.031015850603580475,0.034621432423591614
1747237114258674000,10.518673828125,-0.023949475958943367,-0.026689954102039337,0.042036108672618866
1747237114268704800,10.528704833984374,-0.018345652148127556,-0.02851448580622673,0.050034113228321075
1747237114278736000,10.53873583984375,-0.023280752822756767,-0.035880208015441895,0.03999197110533714
1747237114288767000,10.54876708984375,-0.023745208978652954,-0.03986562788486481,0.047523923218250275
1747237114298797800,10.5587978515625,-0.01659821718931198,-0.04605713114142418,0.04486744850873947
1747237114308829200,10.5688291015625,-0.00677914172410965,-0.05160875990986824,0.03006107360124588
1747237114318860300,10.5788603515625,0.0033603105694055557,-0.07607217878103256,0.017310868948698044
1747237114328891400,10.588891357421875,0.012793493457138538,-0.06991787999868393,0.011746726930141449
1747237114338922200,10.598922119140624,0.021497832611203194,-0.07704437524080276,0.002954470692202449
1747237114348953300,10.608953369140625,0.02814801223576069,-0.060504548251628876,-0.0006514494307339191
1747237114358984200,10.618984130859374,0.029248561710119247,-0.05876521021127701,-0.008350464515388012
1747237114369014300,10.62901416015625,0.028279438614845276,-0.05716651678085327,-0.016341280192136765
1747237114379045400,10.63904541015625,0.02675923891365528,-0.05612512677907944,-0.025345440953969955
1747237114389076200,10.649076171875,0.030937470495700836,-0.050751667469739914,-0.0338747464120388
1747237114399107300,10.659107421875,0.026420358568429947,-0.05070136860013008,-0.040658529847860336
1747237114409138200,10.66913818359375,0.03147850185632706,-0.052410583943128586,-0.04930261895060539
1747237114419169300,10.679169189453125,0.03589415177702904,-0.05479802191257477,-0.05126827210187912
1747237114429200100,10.6892001953125,0.03904147446155548,-0.05063709616661072,-0.054186031222343445
1747237114439231200,10.699231201171875,0.03996865823864937,-0.04989884793758392,-0.05663381889462471
1747237114449262000,10.709261962890626,0.03887196630239487,-0.03496970236301422,-0.0560990571975708
1747237114459293200,10.719293212890625,0.03683338314294815,-0.03070005029439926,-0.05526169762015343
1747237114469324000,10.729323974609375,0.03145725652575493,-0.023036271333694458,-0.04805039241909981
1747237114479355100,10.739355224609374,0.022845588624477386,-0.011938462033867836,-0.044916827231645584
1747237114489386000,10.749385986328125,0.013279779814183712,0.003132101148366928,-0.040114883333444595
1747237114499417000,10.7594169921875,0.010852380655705929,0.002031424082815647,-0.04040200263261795
1747237114509448200,10.7694482421875,0.013106746599078178,-0.00989048182964325,-0.0415242575109005
1747237114519479300,10.779479248046876,0.015251521952450275,-0.015406126156449318,-0.03824039548635483
1747237114529510100,10.78951025390625,0.016553808003664017,-0.031150734052062035,-0.034502651542425156
1747237114539541200,10.799541259765626,0.014961106702685356,-0.04209662228822708,-0.03059917315840721
1747237114549572400,10.809572265625,0.010848386213183403,-0.039298441261053085,-0.025144487619400024
1747237114559603200,10.819603271484375,0.00941893644630909,-0.03783319890499115,-0.019567212089896202
1747237114569634300,10.82963427734375,0.005811951123178005,-0.04867039993405342,-0.017369039356708527
1747237114579665200,10.8396650390625,0.0030600987374782562,-0.028839321807026863,-0.015423133037984371
1747237114589696300,10.8496962890625,-0.0011085475562140346,-0.02641930617392063,-0.021750537678599358
1747237114599727000,10.85972705078125,-0.0038868181873112917,-0.023861145600676537,-0.012831935659050941
1747237114609758200,10.86975830078125,-0.007369167171418667,-0.01539468951523304,-0.01195469032973051
1747237114619789000,10.8797890625,-0.005107675679028034,-0.007380295544862747,-0.011117563582956791
1747237114629820200,10.889820068359375,-0.0006972146220505238,-0.0029506594873964787,-0.009589973837137222
1747237114639850200,10.899850341796874,0.0010830425890162587,0.0032555554062128067,-0.006421037949621677
1747237114649881000,10.909881103515625,-0.0038563222624361515,0.013000860810279846,0.001470174640417099
1747237114659912200,10.919912109375,-0.005001752637326717,0.01717553287744522,0.007672990672290325
1747237114669943000,10.929943115234375,-0.005616410169750452,0.017377931624650955,0.013042189180850983
1747237114679974100,10.93997412109375,-0.009956895373761654,0.015608781948685646,0.025897575542330742
1747237114690005200,10.950005126953124,-0.01670960709452629,0.01991218328475952,0.02576548419892788
1747237114700036400,10.960036376953125,-0.013520073145627975,0.0048428731970489025,0.027833400294184685
1747237114710067200,10.970067138671874,-0.015398399904370308,-0.0032928178552538157,0.028074415400624275
1747237114720098300,10.980098388671875,-0.011495268903672695,0.001309974119067192,0.02194872312247753
1747237114730129200,10.990129150390626,-0.010040916502475739,-0.0014722300693392754,0.023940768092870712
1747237114740160300,11.00016015625,-0.006742994301021099,-0.0024295004550367594,0.017244378104805946
1747237114750191000,11.010191162109376,-0.00581568107008934,0.013833093456923962,0.03839759901165962
1747237114760222200,11.02022216796875,-0.0025554371532052755,0.019799955189228058,0.04207313805818558
1747237114770253000,11.030253173828125,-0.0013927009422332048,0.020012475550174713,0.028717385604977608
1747237114780284200,11.0402841796875,-0.0026638321578502655,0.006078075617551804,0.023728320375084877
1747237114790315300,11.050315185546875,-0.005261745769530535,0.004545958712697029,0.02952282503247261
1747237114800346000,11.06034619140625,-0.0055112154223024845,0.0044386982917785645,0.03106566332280636
1747237114810377200,11.070377197265625,-0.005886454600840807,0.006144986487925053,0.02926536649465561
1747237114820408000,11.080407958984376,-0.006957115605473518,0.012086540460586548,0.03282961621880531
1747237114830439200,11.090439208984375,-0.005414612591266632,0.013100672513246536,0.03815460577607155
1747237114840470000,11.100469970703125,-0.003465641289949417,0.013322205282747746,0.03161028027534485
1747237114850501400,11.11050146484375,-0.002439791802316904,0.010496324859559536,0.02716466598212719
1747237114860532200,11.1205322265625,0.002973944414407015,0.00487488741055131,0.034149717539548874
1747237114870563300,11.130563232421874,0.009548223577439785,0.015703832730650902,0.022119686007499695
1747237114880594200,11.14059423828125,0.008652343414723873,0.022684771567583084,0.01201380044221878
1747237114890625300,11.150625244140626,0.010969027876853943,0.029120299965143204,0.01677420176565647
1747237114900656000,11.16065625,0.004227760713547468,0.03580563887953758,0.017895113676786423
1747237114910687200,11.170687255859375,-0.0034248328302055597,0.04055804759263992,0.026769831776618958
1747237114920718000,11.180718017578124,-0.007473033852875233,0.037206683307886124,0.020771721377968788
1747237114930749200,11.190749267578125,-0.003367238212376833,0.029088305309414864,0.022923288866877556
1747237114940780300,11.2007802734375,0.004554931074380875,0.014018397778272629,0.013158977031707764
1747237114950810000,11.21081005859375,0.010235719382762909,0.004256581421941519,0.011431916616857052
1747237114960841200,11.22084130859375,0.008705738000571728,0.009323189035058022,0.005463673733174801
1747237114970872000,11.2308720703125,0.008337423205375671,0.020174238830804825,0.005374457687139511
1747237114980903200,11.240903076171875,0.0020045554265379906,0.0388985276222229,0.007644130848348141
1747237114990934000,11.25093408203125,-0.004674119874835014,0.053542718291282654,0.008492347784340382
1747237115000965000,11.260965087890625,-0.008617861196398735,0.050907865166664124,0.011514264158904552
1747237115010996200,11.270996337890624,-0.00436026556417346,0.038882896304130554,0.009135794825851917
1747237115021027000,11.281027099609375,0.0015249201096594334,0.022622885182499886,0.004119170363992453
1747237115031058200,11.29105810546875,0.011112832464277744,0.0024062958545982838,0.0004189747851341963
1747237115041089300,11.30108935546875,0.022271940484642982,-0.005321730859577656,-0.0019289384363219142
1747237115051120400,11.311120361328125,0.022524408996105194,-0.007357983849942684,-0.006400918588042259
1747237115061151200,11.321151123046874,0.034164752811193466,-0.01455987710505724,-0.0034703901037573814
1747237115071182300,11.331182373046875,0.04070600867271423,-0.02759551629424095,-0.0031382939778268337
1747237115081213200,11.341213134765624,0.051266781985759735,-0.04326385632157326,-0.002093312330543995
1747237115091244300,11.351244384765625,0.05855691805481911,-0.049154236912727356,0.020197613164782524
1747237115101275100,11.361275146484376,0.04992254823446274,-0.05909259617328644,0.005526973400264978
1747237115111306200,11.37130615234375,0.04547613486647606,-0.06530947238206863,-0.0014419863000512123
1747237115121337000,11.381337158203126,0.0540391281247139,-0.07214109599590302,0.0183990690857172
1747237115131368200,11.3913681640625,0.056904956698417664,-0.07861364632844925,0.004134378395974636
1747237115141399000,11.40139892578125,0.05903255194425583,-0.08760356158018112,-0.014509403146803379
1747237115151430100,11.41143017578125,0.06175723299384117,-0.09799974411725998,-0.007822738029062748
1747237115161461000,11.4214609375,0.06437113136053085,-0.1089034229516983,-0.011234570294618607
1747237115171492000,11.4314921875,0.06840714812278748,-0.11327233910560608,-0.0004711381043307483
1747237115181523200,11.441523193359375,0.05795490741729736,-0.08382510393857956,0.002792173530906439
1747237115191554000,11.451553955078126,0.03647544980049133,-0.042994312942028046,0.01569651998579502
1747237115201585400,11.46158544921875,0.010562889277935028,-0.020913140848279,0.013849562034010887
1747237115211616300,11.4716162109375,-0.008429976180195808,-0.006174675654619932,0.0034507173113524914
1747237115221647400,11.4816474609375,-0.023762525990605354,0.0019484050571918488,-0.0008625242626294494
1747237115231678200,11.49167822265625,-0.03564874827861786,0.01178692001849413,-0.0002555898972786963
1747237115241709300,11.501709228515624,-0.045636001974344254,0.02437480539083481,0.004904523026198149
1747237115251740200,11.511740234375,-0.04904245212674141,0.029393799602985382,0.001825376064516604
1747237115261771300,11.521771240234376,-0.0450468435883522,0.04406852275133133,0.003444325877353549
1747237115271802000,11.531802001953125,-0.0428774319589138,0.05724930390715599,0.000870380608830601
1747237115281833200,11.541833251953125,-0.03622278943657875,0.06475823372602463,0.00021667208056896925
1747237115291864000,11.551864013671874,-0.026815172284841537,0.06688956171274185,0.0017796813044697046
1747237115301895200,11.561895263671875,-0.02102985605597496,0.055544789880514145,0.000813402933999896
1747237115311925800,11.57192578125,-0.012418258935213089,0.0473766066133976,0.00003123254282400012
1747237115321956600,11.58195654296875,-0.013401965610682964,0.029355809092521667,0.005314369220286608
1747237115331987700,11.59198779296875,-0.013607028871774673,0.022003619000315666,0.00808538869023323
1747237115342018800,11.602018798828125,-0.014758785255253315,0.010097119957208633,0.002285400405526161
1747237115352050000,11.6120498046875,-0.01897350326180458,-0.0053060706704854965,0.0003159927437081933
1747237115362080800,11.622080810546874,-0.019742023199796677,-0.01630006544291973,0.002783482661470771
1747237115372112000,11.63211181640625,-0.020762545987963676,-0.01954299584031105,0.0024812137708067894
1747237115382142700,11.642142822265624,-0.022777823731303215,-0.01694387197494507,0.003742585424333811
1747237115392173800,11.652173828125,-0.01985820010304451,-0.018628854304552078,0.00183203408960253
1747237115402204700,11.66220458984375,-0.0167568139731884,-0.013732288032770157,0.001611019717529416
1747237115412235800,11.67223583984375,-0.012998828664422035,-0.01098497025668621,0.0020368590485304594
1747237115422266600,11.6822666015625,-0.009270808659493923,-0.007075474597513676,0.0014433088945224881
1747237115432297700,11.692297607421875,-0.008031906560063362,-0.013154139742255211,-0.0012568701058626175
1747237115442328600,11.70232861328125,-0.007393140345811844,-0.014092613011598587,0.0008560135029256344
1747237115452359700,11.712359619140624,-0.001161343534477055,-0.014219379983842373,-0.00001563908881507814
1747237115462390800,11.722390869140625,0.0035603742580860853,-0.029957236722111702,-0.004383237566798925
1747237115472421600,11.732421630859376,0.010007887147367,-0.03267605975270271,-0.00502798892557621
1747237115482452700,11.74245263671875,0.013643699698150158,-0.03724149987101555,-0.002767006866633892
1747237115492483600,11.752483642578126,0.016915924847126007,-0.034148238599300385,-0.0035305351484566927
1747237115502515000,11.762514892578125,0.015318624675273895,-0.029814356938004494,-0.0009372479980811477
1747237115512545800,11.7725458984375,0.009420521557331085,-0.019842682406306267,0.0020257849246263504
1747237115522577000,11.782576904296874,0.0034364648163318634,-0.01332990825176239,0.0006161310011520982
1747237115532607700,11.792607666015625,0.0010188467567786574,-0.0041984617710113525,0.0024792784824967384
1747237115542638800,11.802638916015624,-0.0008219261653721333,-0.00008462462574243546,-0.00003303404082544148
1747237115552669700,11.812669677734375,0.0009014054667204618,0.0035394043661653996,-0.00007111724698916078
1747237115562700800,11.82270068359375,0.0023587541654706,-0.003845101222395897,-0.0069622984156012535
1747237115572731600,11.832731689453125,0.008080022409558296,-0.01541334018111229,-0.004966259468346834
1747237115582762800,11.8427626953125,0.010380997322499752,-0.0243814829736948,-0.00924851093441248
1747237115592793600,11.852793701171874,0.011747731827199459,-0.0196173544973135,-0.010684221051633358
1747237115602824700,11.86282470703125,0.008989822119474411,-0.007550768554210663,-0.010604004375636578
1747237115612855600,11.87285546875,0.003054168540984392,0.0012818709947168827,-0.00890224426984787
1747237115622886700,11.88288671875,-0.0013139460934326053,0.007596917916089296,-0.0077871219255030155
1747237115632917800,11.892917724609376,-0.0065206922590732574,0.011344784870743752,-0.004942066967487335
1747237115642948600,11.902948486328125,-0.007932105101644993,0.01054409146308899,-0.00467558391392231
1747237115652979700,11.912979736328126,-0.0055584292858839035,0.010277509689331055,-0.006145915947854519
1747237115663010800,11.9230107421875,-0.0018670829012989998,0.014118092134594917,-0.007594785187393427
1747237115673042000,11.9330419921875,0.004755399655550718,0.01444006897509098,-0.007807571906596422
1747237115683072800,11.94307275390625,0.006443972233682871,0.024131180718541145,-0.008936095051467419
1747237115693103900,11.953103759765625,0.010450963862240314,0.03639077767729759,-0.014702371321618557
1747237115703134700,11.963134765625,0.004496210720390081,0.04764637351036072,-0.01337081752717495
1747237115713165800,11.973165771484375,0.001688439748249948,0.048451974987983704,-0.007149140816181898
1747237115723196700,11.98319677734375,-0.004612939897924662,0.04776567220687866,-0.0045099216513335705
1747237115733227800,11.993227783203125,-0.006667036097496748,0.04178021475672722,0.000371652829926461
1747237115743258600,12.003258544921875,-0.008324522525072098,0.03515002503991127,0.0010935927275568247
1747237115753289700,12.013289794921874,-0.007287754211574793,0.025474227964878082,0.0037239971570670605
1747237115763320600,12.023320556640625,-0.009263081476092339,0.021717077121138573,0.004965985659509897
1747237115773351700,12.0333515625,-0.010782947763800621,0.017234977334737778,0.006408886052668095
1747237115783382500,12.043382568359375,-0.014048051089048386,0.01635660044848919,0.006546500604599714
1747237115793413600,12.05341357421875,-0.016634780913591385,0.018966497853398323,0.006343834102153778
1747237115803444700,12.06344482421875,-0.020750032737851143,0.02384117618203163,0.005251320078969002
1747237115813475600,12.0734755859375,-0.022194266319274902,0.02527635544538498,0.0030717889312654734
1747237115823505700,12.083505615234374,-0.017009157687425613,0.018688317388296127,0.006441738456487656
1747237115833536500,12.09353662109375,-0.01663791388273239,0.01068099308758974,0.0056550404988229275
1747237115843567600,12.103567626953126,-0.00876368023455143,0.0030822078697383404,0.00458493921905756
1747237115853598700,12.1135986328125,-0.006108508445322514,-0.006418618839234114,0.0008589106146246195
1747237115863629800,12.1236298828125,-0.000626055640168488,-0.005625995807349682,-0.0019660985562950373
1747237115873661000,12.133660888671875,0.0042648399248719215,-0.003963383845984936,-0.000737049849703908
1747237115883691800,12.14369189453125,0.008384482935070992,0.0016018236055970192,-0.008202689699828625
1747237115893723000,12.153722900390624,0.01324927993118763,-0.001287173479795456,-0.01763773523271084
1747237115903753700,12.163753662109375,0.024033207446336746,-0.01271064393222332,-0.02864161692559719
1747237115913784800,12.173784912109374,0.035940203815698624,-0.02221653237938881,-0.03530058637261391
1747237115923815700,12.183815673828125,0.04828969016671181,-0.03028678707778454,-0.0445401631295681
1747237115933846800,12.1938466796875,0.058388128876686096,-0.03234514594078064,-0.04880627989768982
1747237115943877600,12.203877685546875,0.06504916399717331,-0.023273898288607597,-0.05044514313340187
1747237115953908700,12.21390869140625,0.06909210979938507,-0.02087412402033806,-0.0532878041267395
1747237115963939600,12.223939697265624,0.06503363698720932,-0.012698499485850334,-0.053198300302028656
1747237115973970700,12.233970703125,0.06023915484547615,-0.008057143539190292,-0.04866400361061096
1747237115984001500,12.24400146484375,0.06040121242403984,-0.01348133571445942,-0.0559752993285656
1747237115994032600,12.25403271484375,0.05751088261604309,-0.020500361919403076,-0.04183498024940491
1747237116004063700,12.264063720703126,0.05528801679611206,-0.017354093492031097,-0.03467322885990143
1747237116014094800,12.2740947265625,0.05216812342405319,-0.021056152880191803,-0.03211712837219238
