time,seconds_elapsed,z,y,x
1747237103755059200,0.01505908203125,0.24807319045066833,-0.05772321671247482,-0.07068588584661484
1747237103765090300,0.02509033203125,0.23328891396522522,0.060745105147361755,0.004388090688735247
1747237103775121200,0.03512109375,0.19901269674301147,0.15320606529712677,0.03825417906045914
1747237103785152300,0.04515234375,0.1702154129743576,0.19896955788135529,0.035525236278772354
1747237103795183400,0.055183349609375,0.16133137047290802,0.197067528963089,0.021158814430236816
1747237103805214500,0.06521435546875,0.16262513399124146,0.13968172669410706,0.006461627781391144
1747237103815244300,0.075244384765625,0.17465730011463165,0.06383863091468811,0.005264536943286657
1747237103825275400,0.085275390625,0.18605482578277588,0.018921492621302605,0.04801572859287262
1747237103835306500,0.095306396484375,0.19523687660694122,0.026570091024041176,0.11099256575107574
1747237103845337300,0.10533740234375,0.19983108341693878,0.08785848319530487,0.18785086274147034
1747237103855368400,0.115368408203125,0.17359362542629242,0.10211624950170517,0.2481594681739807
1747237103865399300,0.1253994140625,0.1082492396235466,0.0819808840751648,0.24843351542949677
1747237103875430400,0.135430419921875,0.022728215903043747,-0.028193820267915726,0.1956629753112793
1747237103885461200,0.145461181640625,-0.038899995386600494,-0.18861918151378632,0.13050101697444916
1747237103895492400,0.155492431640625,-0.08261179178953171,-0.3150080144405365,0.06839876621961594
1747237103905522400,0.1655224609375,-0.1133824810385704,-0.370041161775589,0.022937806323170662
1747237103915553300,0.17555322265625,-0.14388073980808258,-0.3626064360141754,-0.018221348524093628
1747237103925584400,0.18558447265625,-0.1817610114812851,-0.3377916216850281,-0.07485879212617874
1747237103935615200,0.195615234375,-0.21744070947170258,-0.3674651086330414,-0.14294490218162537
1747237103945646300,0.205646240234375,-0.2539103031158447,-0.47475665807724,-0.20767197012901306
1747237103955677200,0.21567724609375,-0.27774637937545776,-0.6099607944488525,-0.2606459856033325
1747237103965708300,0.225708251953125,-0.2908395528793335,-0.7261942028999329,-0.2684580981731415
1747237103975739100,0.2357392578125,-0.2916821837425232,-0.8077971935272217,-0.22054888308048248
1747237103985770200,0.245770263671875,-0.26564231514930725,-0.7641698122024536,-0.1253664493560791
1747237103995800300,0.25580029296875,-0.21968787908554077,-0.6443491578102112,-0.005528988782316446
1747237104005831200,0.2658310546875,-0.15476827323436737,-0.4927774667739868,0.11217660456895828
1747237104015862300,0.2758623046875,-0.1199096292257309,-0.32671767473220825,0.21196551620960236
1747237104025893000,0.28589306640625,-0.15961895883083344,-0.22879350185394287,0.28094005584716797
1747237104035924200,0.29592431640625,-0.28489965200424194,-0.24525369703769684,0.2862221598625183
1747237104045955300,0.305955322265625,-0.46590670943260193,-0.38295936584472656,0.2220277339220047
1747237104055986400,0.315986328125,-0.636589527130127,-0.4948107898235321,0.07760851085186005
1747237104066017300,0.326017333984375,-0.7520071864128113,-0.48619014024734497,-0.14150173962116241
1747237104076048400,0.33604833984375,-0.813075602054596,-0.4490952491760254,-0.40594324469566345
1747237104086078500,0.346078369140625,-0.8359529376029968,-0.474940687417984,-0.6658996939659119
1747237104096109300,0.356109375,-0.8404382467269897,-0.6488408446311951,-0.8711727261543274
1747237104106140400,0.366140380859375,-0.8439938426017761,-0.9585922956466675,-0.9752383828163147
1747237104116171300,0.376171142578125,-0.8573223948478699,-1.2193567752838135,-0.9744306802749634
1747237104126202400,0.386202392578125,-0.8725280165672302,-1.2873246669769287,-0.8686406016349792
1747237104136233200,0.396233154296875,-0.9262580871582031,-1.1576465368270874,-0.6872828006744385
1747237104146264300,0.406264404296875,-1.076810598373413,-0.8031699657440186,-0.5246536731719971
1747237104156295400,0.41629541015625,-1.3017734289169312,-0.31984326243400574,-0.40445268154144287
1747237104166326300,0.426326171875,-1.5631687641143799,0.10084804892539978,-0.30106210708618164
1747237104176356400,0.4363564453125,-1.8275604248046875,0.17811007797718048,-0.14120665192604065
1747237104186387200,0.44638720703125,-2.0438568592071533,-0.07639330625534058,0.11276516318321228
1747237104196418300,0.456418212890625,-2.1533710956573486,-0.3144415616989136,0.4216234087944031
1747237104206449200,0.46644921875,-2.1332364082336426,-0.2917189300060272,0.7159780859947205
1747237104216480300,0.476480224609375,-1.9919160604476929,-0.0685361847281456,0.989179253578186
1747237104226511400,0.486511474609375,-1.7429723739624023,0.13616210222244263,1.2348291873931885
1747237104236542200,0.496542236328125,-1.4874646663665771,0.16911205649375916,1.3947783708572388
1747237104246573300,0.5065732421875,-1.347753643989563,-0.017767811194062233,1.3279013633728027
1747237104256604200,0.516604248046875,-1.3730767965316772,-0.36833807826042175,1.0388141870498657
1747237104266634200,0.52663427734375,-1.5399597883224487,-0.9431995153427124,0.5999481081962585
1747237104276665000,0.5366650390625,-1.727525234222412,-1.644604206085205,0.14117363095283508
1747237104286696200,0.5466962890625,-1.8082661628723145,-2.128157615661621,-0.27296894788742065
1747237104296727300,0.556727294921875,-1.7074415683746338,-2.2268788814544678,-0.5934311151504517
1747237104306758100,0.566758056640625,-1.4430007934570312,-1.9705088138580322,-0.8369194269180298
1747237104316789200,0.576789306640625,-1.097444772720337,-1.4502136707305908,-1.024452567100525
1747237104326820000,0.586820068359375,-0.8142300844192505,-0.9486265182495117,-1.1721402406692505
1747237104336851200,0.596851318359375,-0.6920024156570435,-0.7120192646980286,-1.2812132835388184
1747237104346882300,0.60688232421875,-0.6705275177955627,-0.7052053213119507,-1.3077402114868164
1747237104356913400,0.616913330078125,-0.625604510307312,-0.6527620553970337,-1.2282158136367798
1747237104366943200,0.626943115234375,-0.46150636672973633,-0.37787219882011414,-1.1225717067718506
1747237104376974300,0.636974365234375,-0.16997918486595154,-0.08155611157417297,-1.0468071699142456
1747237104387005400,0.64700537109375,0.18786656856536865,0.1357269436120987,-0.9752029776573181
1747237104397036300,0.657036376953125,0.27399852871894836,0.9501932263374329,-0.23028141260147095
1747237104407067400,0.6670673828125,0.27522945404052734,1.2194780111312866,0.08146742731332779
1747237104417098200,0.67709814453125,0.19598601758480072,1.5735158920288086,0.14485839009284973
1747237104427129300,0.68712939453125,0.2273431420326233,1.6226352453231812,-0.0028903286438435316
1747237104437160200,0.69716015625,0.4055112898349762,1.1380465030670166,-0.26589319109916687
1747237104447191300,0.70719140625,0.5963525772094727,0.3181667923927307,-0.5189523696899414
1747237104457222100,0.71722216796875,0.7464648485183716,-0.35169732570648193,-0.7269889116287231
1747237104467252200,0.727252197265625,0.8630109429359436,-0.6680081486701965,-0.9580245018005371
1747237104477283300,0.737283447265625,0.9791803956031799,-0.6505969166755676,-1.1194981336593628
1747237104487314200,0.747314208984375,1.113152265548706,-0.42791032791137695,-1.093855381011963
1747237104497345300,0.75734521484375,1.2624752521514893,-0.11494150012731552,-0.9026395678520203
1747237104507376000,0.767376220703125,1.457801103591919,0.2837137281894684,-0.6250758767127991
1747237104517407200,0.7774072265625,1.6998869180679321,0.6848164200782776,-0.33834049105644226
1747237104527438000,0.78743798828125,1.7986385822296143,1.0451877117156982,-0.04863171651959419
1747237104537469200,0.79746923828125,1.693259596824646,1.1834443807601929,0.23506763577461243
1747237104547500000,0.8075,1.4155499935150146,0.910876989364624,0.5657763481140137
1747237104557531100,0.81753125,1.0185155868530273,0.620532751083374,0.9732852578163147
1747237104567561200,0.827561279296875,0.6074196100234985,0.7577481269836426,1.3606990575790405
1747237104577592000,0.837592041015625,0.2936340272426605,1.0835942029953003,1.7846609354019165
1747237104587623200,0.847623046875,0.08300486952066422,1.4042270183563232,2.225494623184204
1747237104597654300,0.857654296875,-0.08150658011436462,1.8240456581115723,2.6218326091766357
1747237104607685400,0.867685302734375,-0.48164358735084534,2.1750028133392334,3.0322136878967285
1747237104617716200,0.87771630859375,-1.0169118642807007,2.450011730194092,3.3549611568450928
1747237104627747300,0.887747314453125,-1.5678378343582153,2.9056501388549805,3.469313859939575
1747237104637778200,0.897778076171875,-2.1072230339050293,3.173801898956299,3.402219772338867
1747237104647809300,0.907809326171875,-2.656890869140625,3.0082449913024902,3.029106855392456
1747237104657839400,0.91783935546875,-3.1731576919555664,2.3786938190460205,2.321047306060791
1747237104667870200,0.9278701171875,-3.570833921432495,1.9358067512512207,1.6201002597808838
1747237104677901300,0.9379013671875,-3.5397756099700928,1.4682408571243286,1.1198762655258179
1747237104687932200,0.94793212890625,-3.0545074939727783,0.2594960033893585,0.6655817627906799
1747237104697963300,0.95796337890625,-2.402376890182495,-1.8772958517074585,-0.03388845920562744
1747237104707994000,0.967994140625,-1.8409212827682495,-3.8281750679016113,-0.6458711624145508
1747237104718025200,0.978025146484375,-1.407310962677002,-4.4993181228637695,-0.4228953421115875
1747237104728056300,0.988056396484375,-1.2033472061157227,-4.414979934692383,0.24404248595237732
1747237104738087200,0.998087158203125,-1.2304307222366333,-4.338995933532715,0.8132726550102234
1747237104748118300,1.0081181640625,-1.4168459177017212,-4.685622692108154,0.9000107645988464
1747237104758148000,1.018148193359375,-1.6480858325958252,-4.607892036437988,0.2835427522659302
1747237104768179200,1.02817919921875,-1.6818019151687622,-3.813654899597168,-0.05210048705339432
1747237104778210000,1.0382099609375,-1.4479804039001465,-2.6790857315063477,-0.46725401282310486
1747237104788241200,1.0482412109375,-1.0885577201843262,-1.7305591106414795,-0.727898120880127
1747237104798272300,1.058272216796875,-0.8143808245658875,-1.0856341123580933,-0.9565613865852356
1747237104808303000,1.06830322265625,-0.7138084173202515,-0.8901488184928894,-1.2354375123977661
1747237104818334500,1.07833447265625,-0.6394121646881104,-1.2905457019805908,-1.6303062438964844
1747237104828365300,1.088365234375,-0.42166388034820557,-0.3929227888584137,-2.183098316192627
1747237104838396400,1.098396484375,-0.028716066852211952,0.2339632213115692,-2.566190481185913
1747237104848427300,1.10842724609375,0.2496737539768219,-0.6875437498092651,-2.6275742053985596
1747237104858458400,1.118458251953125,0.42879796028137207,-1.2119220495224,-2.6372618675231934
1747237104868488200,1.12848828125,0.4672316312789917,-1.4252135753631592,-2.5107781887054443
1747237104878519300,1.138519287109375,0.3924548625946045,-1.1887903213500977,-2.1947102546691895
1747237104888550400,1.14855029296875,0.33539584279060364,-0.7619088292121887,-1.7696220874786377
1747237104898581200,1.158581298828125,0.2712669372558594,-0.6576582789421082,-1.3656882047653198
1747237104908612400,1.1686123046875,0.19570772349834442,-0.8201369643211365,-1.021679401397705
1747237104918643200,1.178643310546875,0.18151547014713287,-0.8789427280426025,-0.6760966777801514
1747237104928674300,1.18867431640625,0.22723235189914703,-0.8417160511016846,-0.3588963747024536
1747237104938705200,1.198705078125,0.2707872986793518,-0.8788575530052185,-0.1205541118979454
1747237104948736300,1.208736328125,0.30519798398017883,-1.2019602060317993,0.02648487128317356
1747237104958767000,1.21876708984375,0.34591159224510193,-1.7034244537353516,0.11350232362747192
1747237104968797200,1.228797119140625,0.40483617782592773,-2.0482265949249268,0.23851697146892548
1747237104978828300,1.238828369140625,0.5156825184822083,-2.1074061393737793,0.4268951416015625
1747237104988859100,1.248859130859375,0.8034546375274658,-1.6857365369796753,0.7127513885498047
1747237104998890200,1.25889013671875,0.9156607985496521,-0.7783316969871521,1.0081974267959595
1747237105008921000,1.268921142578125,0.6099075675010681,-0.2254943698644638,1.1430143117904663
1747237105018952200,1.2789521484375,0.29648518562316895,-0.04551315680146217,1.1459763050079346
1747237105028983000,1.288983154296875,0.269953191280365,-0.12614941596984863,1.1299078464508057
1747237105039014400,1.299014404296875,0.4051152765750885,-0.358381062746048,1.1981167793273926
1747237105049045200,1.309045166015625,0.5469943881034851,-0.6272031664848328,1.5074626207351685
1747237105059076400,1.319076416015625,0.5257335901260376,-1.5540086030960083,2.0806493759155273
1747237105069106400,1.3291064453125,0.38488882780075073,-2.5623779296875,2.855226755142212
1747237105079137300,1.33913720703125,0.2789994180202484,-2.91273832321167,3.6597862243652344
1747237105089168400,1.34916845703125,0.11023782193660736,-2.8617708683013916,4.068960189819336
1747237105099199200,1.35919921875,-0.13112500309944153,-3.355748414993286,3.276648759841919
1747237105109230300,1.369230224609375,-0.2049265205860138,-3.147818088531494,2.220858573913574
1747237105119261200,1.37926123046875,-0.21092848479747772,-2.226475954055786,1.602174162864685
1747237105129292300,1.389292236328125,-0.20332781970500946,-1.3301628828048706,1.0508415699005127
1747237105139323100,1.3993232421875,-0.2466912716627121,-0.9120181798934937,0.5957491397857666
1747237105149354200,1.409354248046875,-0.2491333931684494,-0.6695437431335449,0.432730108499527
1747237105159385000,1.419385009765625,-0.13654106855392456,-0.5492870807647705,0.4293806552886963
1747237105169416200,1.429416259765625,0.07835712283849716,-0.8465749621391296,0.4756147265434265
1747237105179446300,1.4394462890625,0.35655277967453003,-1.216995120048523,0.6649811863899231
1747237105189477000,1.44947705078125,0.3436417877674103,-1.3882941007614136,0.8654615879058838
1747237105199508200,1.45950830078125,0.13737542927265167,-1.6170077323913574,0.9704558849334717
1747237105209539000,1.4695390625,-0.0608937107026577,-1.5905612707138062,0.9491900205612183
1747237105219570200,1.479570068359375,-0.07320204377174377,-1.364879846572876,0.8193643689155579
1747237105229601000,1.48960107421875,0.021263742819428444,-1.0618412494659424,0.5631064772605896
1747237105239632100,1.499632080078125,0.1484813541173935,-0.6270942687988281,0.27468907833099365
1747237105249663200,1.509663330078125,0.20502504706382751,-0.24541987478733063,-0.01492542028427124
1747237105259694300,1.5196943359375,0.21984155476093292,-0.01967596635222435,-0.031097732484340668
1747237105269725400,1.529725341796875,0.18625588715076447,0.2024332582950592,0.07052183896303177
1747237105279755000,1.539755126953125,0.07102064788341522,0.037758029997348785,0.2220836579799652
1747237105289786400,1.549786376953125,-0.03849918767809868,-0.271854430437088,0.3295406103134155
1747237105299817500,1.5598173828125,-0.05720549821853638,-0.48726606369018555,0.40496426820755005
1747237105309848600,1.5698486328125,-0.016809606924653053,-0.639132559299469,0.4615766704082489
1747237105319879400,1.57987939453125,0.0218347255140543,-0.6376718282699585,0.4976273477077484
1747237105329910500,1.58991064453125,0.06157920882105827,-0.20723333954811096,0.45619070529937744
1747237105339941400,1.59994140625,0.06814922392368317,0.25844645500183105,0.24656982719898224
1747237105349972500,1.609972412109375,0.030528081580996513,0.5783600211143494,-0.0358075313270092
1747237105360003600,1.620003662109375,-0.0604202002286911,0.8639510273933411,-0.29017776250839233
1747237105370034700,1.63003466796875,-0.1653098613023758,0.9550002217292786,-0.4936043918132782
1747237105380065800,1.640065673828125,-0.13138864934444427,0.853642463684082,-0.6542012691497803
1747237105390095600,1.650095703125,0.09540028870105743,0.6532872319221497,-0.7185328602790833
1747237105400126700,1.660126708984375,0.3030589520931244,0.2827256917953491,-0.6800890564918518
1747237105410157600,1.670157470703125,0.4742136597633362,-0.1738138645887375,-0.6238550543785095
1747237105420188700,1.680188720703125,0.660719633102417,-0.3696422278881073,-0.6862753033638
1747237105430219800,1.6902197265625,0.8506879210472107,-0.20474089682102203,-0.870670735836029
1747237105440250600,1.700250732421875,0.7079963088035583,-0.11237820982933044,-1.0673882961273193
1747237105450281700,1.71028173828125,0.3971702456474304,0.029257221147418022,-0.9935066103935242
1747237105460312600,1.7203125,0.17541363835334778,0.5549910664558411,-0.6978397965431213
1747237105470343700,1.73034375,0.036190494894981384,0.7579138278961182,-0.45567697286605835
1747237105480374500,1.74037451171875,-0.07634377479553223,0.6038395762443542,-0.23644183576107025
1747237105490404600,1.750404541015625,-0.15171176195144653,0.8160223960876465,0.015460981987416744
1747237105500435700,1.760435791015625,0.016343286260962486,1.198635220527649,0.004521514754742384
1747237105510466600,1.770466552734375,0.5215033888816833,1.3415511846542358,-0.1392574906349182
1747237105520497700,1.78049755859375,0.9233885407447815,1.4384771585464478,-0.2898368835449219
1747237105530528500,1.790528564453125,1.1338170766830444,1.2307116985321045,-0.3651185929775238
1747237105540559600,1.8005595703125,1.1647398471832275,0.9215884804725647,-0.22160163521766663
1747237105550590500,1.810590576171875,1.0031206607818604,0.4995347261428833,0.20827516913414001
1747237105560621600,1.82062158203125,0.7068530321121216,-0.0006998787284828722,0.6973122358322144
1747237105570652400,1.83065234375,0.3553122878074646,-0.3270585536956787,1.0168718099594116
1747237105580683800,1.840683837890625,0.14908722043037415,-0.7534521818161011,1.0905247926712036
1747237105590714600,1.850714599609375,0.1202624961733818,-1.08191978931427,1.043810248374939
1747237105600744400,1.860744384765625,0.11768295615911484,-1.1460487842559814,0.885325014591217
1747237105610775800,1.87077587890625,0.0946468785405159,-0.9872599244117737,0.6900210380554199
1747237105620806700,1.880806640625,0.04628361016511917,-0.7162904739379883,0.5333832502365112
1747237105630837800,1.890837646484375,0.005703425966203213,-0.3747568428516388,0.42201462388038635
1747237105640868600,1.90086865234375,-0.007763647008687258,0.023568175733089447,0.3294607102870941
1747237105650899700,1.910899658203125,0.0031502533238381147,0.38639962673187256,0.20980915427207947
1747237105660930600,1.9209306640625,0.020675450563430786,0.579360842704773,0.075119249522686
1747237105670961700,1.930961669921875,0.00449887802824378,0.6582841277122498,-0.05661880597472191
1747237105680992500,1.940992431640625,-0.025346901267766953,0.6439917683601379,-0.21790888905525208
1747237105691023600,1.951023681640625,-0.001067927572876215,0.6395543813705444,-0.3020368218421936
1747237105701053700,1.9610537109375,-0.08206877112388611,0.7625106573104858,-0.3136548697948456
1747237105711084500,1.97108447265625,-0.04899657145142555,1.0424344539642334,-0.26858219504356384
1747237105721115600,1.98111572265625,0.0448463000357151,1.6035553216934204,-0.22150495648384094
1747237105731146500,1.991146484375,0.13890622556209564,2.558152437210083,-0.12121617048978806
1747237105741177600,2.001177490234375,0.2221188247203827,3.5977039337158203,-0.08345361053943634
1747237105751208400,2.01120849609375,0.3857024312019348,4.34895658493042,-0.11910828202962875
1747237105761239600,2.021239501953125,0.6733437776565552,4.61128044128418,-0.25028547644615173
1747237105771270400,2.0312705078125,1.0540189743041992,4.582558631896973,-0.5786985158920288
1747237105781301500,2.041301513671875,1.2984998226165771,4.432905673980713,-1.0550951957702637
1747237105791332600,2.05133251953125,1.3563300371170044,4.270642280578613,-1.4231277704238892
1747237105801362400,2.061362548828125,1.3659331798553467,4.1645283699035645,-1.5843318700790405
1747237105811393500,2.0713935546875,1.4665361642837524,4.154967308044434,-1.5202492475509644
1747237105821424400,2.08142431640625,1.5770504474639893,4.13358211517334,-1.314586877822876
1747237105831455700,2.091455810546875,1.5643826723098755,3.987257480621338,-1.0852165222167969
1747237105841486600,2.101486572265625,1.509594202041626,3.9865193367004395,-0.8896710276603699
1747237105851517700,2.111517578125,1.6158628463745117,4.333008289337158,-0.812555730342865
1747237105861548500,2.121548583984375,1.8447320461273193,4.72932243347168,-0.9529623985290527
1747237105871579600,2.13157958984375,2.0622568130493164,4.8349809646606445,-1.346559762954712
1747237105881610800,2.14161083984375,2.2203550338745117,4.564828872680664,-1.8166170120239258
1747237105891641600,2.1516416015625,2.19625186920166,4.201646327972412,-2.1056222915649414
1747237105901672700,2.161672607421875,1.980549693107605,3.6439921855926514,-2.1455891132354736
1747237105911702500,2.17170263671875,1.7083491086959839,2.733151435852051,-1.9270108938217163
1747237105921733600,2.181733642578125,1.4361016750335693,1.6712441444396973,-1.4785945415496826
1747237105931764500,2.191764404296875,1.231938123703003,0.6031279563903809,-0.9129742383956909
1747237105941795600,2.201795654296875,1.1421229839324951,-0.28941211104393005,-0.39755934476852417
1747237105951826700,2.21182666015625,1.1417725086212158,-0.8410062789916992,-0.047083355486392975
1747237105961857500,2.221857421875,1.1582430601119995,-0.9672777056694031,0.08722758293151855
1747237105971888600,2.231888671875,1.1864848136901855,-0.7231299877166748,-0.022301310673356056
1747237105981919500,2.24191943359375,1.1890710592269897,-0.20253846049308777,-0.3659106194972992
1747237105991950600,2.25195068359375,1.1404294967651367,0.5218573212623596,-0.8729777932167053
1747237106001981400,2.2619814453125,1.046344518661499,1.1924141645431519,-1.421439528465271
1747237106012011500,2.272011474609375,0.8691625595092773,1.6113269329071045,-1.8814811706542969
1747237106022042600,2.282042724609375,0.6445701718330383,1.7239621877670288,-2.1541788578033447
1747237106032073500,2.292073486328125,0.48508787155151367,1.473509430885315,-2.173607349395752
1747237106042104600,2.3021044921875,0.4973336160182953,0.9718745350837708,-1.917982816696167
1747237106052135700,2.3121357421875,0.6903853416442871,0.554251492023468,-1.4652589559555054
1747237106062166800,2.322166748046875,1.0249199867248535,0.43929001688957214,-1.054394245147705
1747237106072197600,2.33219775390625,1.4234215021133423,0.5656455755233765,-0.9323383569717407
1747237106082228700,2.342228759765625,1.7887605428695679,0.7308592796325684,-1.149835467338562
1747237106092259600,2.352259521484375,1.9861341714859009,0.7930020093917847,-1.570488452911377
1747237106102290700,2.362290771484375,2.0097134113311768,0.7746291160583496,-1.9657928943634033
1747237106112320800,2.37232080078125,1.9200514554977417,0.5286366939544678,-2.1946237087249756
1747237106122351600,2.3823515625,1.7737563848495483,0.08545470982789993,-2.3064303398132324
1747237106132382700,2.3923828125,1.6018128395080566,-0.411761999130249,-2.411897659301758
1747237106142413600,2.40241357421875,1.5153123140335083,-0.8944423794746399,-2.542051315307617
1747237106152444700,2.412444580078125,1.5765626430511475,-1.2872754335403442,-2.692639112472534
1747237106162475500,2.4224755859375,1.710671067237854,-1.5462771654129028,-2.8451716899871826
1747237106172506600,2.432506591796875,1.9032021760940552,-1.6406270265579224,-2.982461929321289
1747237106182537500,2.442537353515625,2.17928409576416,-1.6182682514190674,-3.130185842514038
1747237106192568600,2.452568603515625,2.5029149055480957,-1.4674041271209717,-3.2782177925109863
1747237106202599400,2.462599365234375,2.8019988536834717,-1.221796989440918,-3.381239414215088
1747237106212630500,2.472630615234375,2.6993982791900635,-0.9520252346992493,-3.2674036026000977
1747237106222660600,2.48266064453125,2.162217855453491,-0.3814765214920044,-2.7015888690948486
1747237106232691500,2.49269140625,1.590273380279541,0.22970668971538544,-1.7570316791534424
1747237106242722600,2.50272265625,1.1231921911239624,1.2529975175857544,-0.5551601648330688
1747237106252753400,2.51275341796875,0.8109594583511353,2.4506826400756836,0.4577305316925049
1747237106262784800,2.52278466796875,0.7027895450592041,2.9804399013519287,0.5819880366325378
1747237106272815600,2.532815673828125,0.7574893236160278,2.8576340675354004,-0.0191984623670578
1747237106282846700,2.5428466796875,0.8459075689315796,3.344083786010742,0.005421929527074099
1747237106292877600,2.552877685546875,1.1177361011505127,3.501338481903076,0.40852490067481995
1747237106302908700,2.56290869140625,1.3193848133087158,3.5814778804779053,0.7399007081985474
1747237106312939500,2.572939453125,1.4106189012527466,3.5431108474731445,0.7294778823852539
1747237106322969600,2.582969482421875,1.3659778833389282,3.164119243621826,0.4559803009033203
1747237106333000700,2.593000732421875,1.2530546188354492,2.849581003189087,0.2623778283596039
1747237106343031600,2.603031494140625,1.1908825635910034,2.397130012512207,0.0630873590707779
1747237106353062700,2.613062744140625,1.218427300453186,1.800533413887024,-0.09363807737827301
1747237106363093500,2.623093505859375,1.4915531873703003,1.3793123960494995,-0.12429612129926682
1747237106373124600,2.63312451171875,1.8463751077651978,0.8932340741157532,-0.20281089842319489
1747237106383155700,2.64315576171875,2.133063316345215,0.2815299332141876,-0.3155243992805481
1747237106393186600,2.6531865234375,2.2579236030578613,-0.21509526669979095,-0.4465210437774658
1747237106403218000,2.663218017578125,2.2476704120635986,-0.3383735120296478,-0.6528521180152893
1747237106413248800,2.673248779296875,2.1150827407836914,0.10697305202484131,-0.6919898986816406
1747237106423278600,2.683278564453125,1.9535481929779053,0.5607424378395081,-0.7640984654426575
1747237106433309700,2.693309814453125,1.8819690942764282,0.9581523537635803,-0.9199788570404053
1747237106443340800,2.7033408203125,1.9577230215072632,0.8347132205963135,-1.0825589895248413
1747237106453371600,2.71337158203125,2.094874143600464,0.7234205603599548,-1.0447583198547363
1747237106463402800,2.72340283203125,2.2080399990081787,0.6730207204818726,-0.9311705231666565
1747237106473433900,2.733433837890625,2.159099578857422,0.42808637022972107,-0.7950249314308167
1747237106483464700,2.743464599609375,1.9236502647399902,-0.057622816413640976,-0.5124262571334839
1747237106493495800,2.753495849609375,1.623070478439331,-0.4703110456466675,-0.05736049637198448
1747237106503526700,2.763526611328125,1.3734127283096313,-0.8212693333625793,0.3303150534629822
1747237106513557800,2.773557861328125,1.1960269212722778,-1.1160058975219727,0.5505337119102478
1747237106523587600,2.783587646484375,1.083634853363037,-1.4434841871261597,0.6746814846992493
1747237106533618700,2.79361865234375,0.9805468916893005,-1.6701295375823975,0.7824247479438782
1747237106543649800,2.80364990234375,0.8886489272117615,-1.716543436050415,0.826814591884613
1747237106553680600,2.8136806640625,0.5229862332344055,-1.4566279649734497,0.977904200553894
1747237106563711700,2.823711669921875,-0.2369619458913803,-0.9399126172065735,0.9744378328323364
1747237106573742600,2.83374267578125,-0.575999915599823,-0.5770843625068665,0.6988044381141663
1747237106583773700,2.843773681640625,-0.607373833656311,0.441694051027298,0.6635081768035889
1747237106593804500,2.853804443359375,-0.3974703848361969,0.449608713388443,0.5365899205207825
1747237106603835600,2.863835693359375,-0.06972768157720566,0.39129719138145447,0.5100216865539551
1747237106613866500,2.873866455078125,0.24304167926311493,0.021141771227121353,0.6452721953392029
1747237106623896600,2.883896484375,0.2851047217845917,-0.5688623785972595,0.9580780267715454
1747237106633927700,2.893927734375,0.04393283650279045,-1.2336909770965576,1.393492341041565
1747237106643958500,2.90395849609375,-0.39094406366348267,-2.0090205669403076,1.828464388847351
1747237106653990000,2.913989990234375,-1.1114609241485596,-2.9695534706115723,2.2157413959503174
1747237106664020700,2.924020751953125,-1.9219311475753784,-3.972952365875244,2.449709177017212
1747237106674051800,2.9340517578125,-2.8092546463012695,-4.6320905685424805,2.435072660446167
1747237106684082700,2.944082763671875,-3.7652547359466553,-4.6571197509765625,2.152928590774536
1747237106694113800,2.95411376953125,-4.600525379180908,-3.9094395637512207,1.6723299026489258
1747237106704144600,2.96414453125,-5.316010475158691,-2.5756402015686035,1.3532652854919434
1747237106714175700,2.97417578125,-6.015969753265381,-0.7639226913452148,1.046286702156067
1747237106724206600,2.98420654296875,-6.144018650054932,0.35857173800468445,0.8797747492790222
1747237106734236700,2.994236572265625,-6.586032390594482,0.117007315158844,0.972228467464447
1747237106744267800,3.004267822265625,-6.079859256744385,1.2688993215560913,0.8301637768745422
1747237106754298600,3.014298583984375,-5.181870460510254,2.2818734645843506,0.5453000664710999
1747237106764329700,3.024329833984375,-4.716422080993652,2.0324485301971436,-0.003281813347712159
1747237106774360600,3.034360595703125,-4.371882438659668,1.5083990097045898,-0.47155287861824036
1747237106784391700,3.0443916015625,-3.910184860229492,1.305675983428955,-0.7533962726593018
1747237106794422500,3.054422607421875,-3.2224526405334473,1.4972046613693237,-1.0499716997146606
1747237106804453600,3.06445361328125,-2.3007020950317383,1.8792822360992432,-1.2926733493804932
1747237106814484500,3.074484375,-1.2673008441925049,2.594741106033325,-1.419801950454712
1747237106824515600,3.084515625,-0.41690561175346375,3.0729546546936035,-1.5507304668426514
1747237106834545700,3.094545654296875,-0.037883199751377106,2.834066152572632,-1.6333539485931396
1747237106844576500,3.104576416015625,0.14289003610610962,2.294041395187378,-1.5264225006103516
1747237106854607600,3.114607666015625,0.0996251255273819,1.8369786739349365,-1.3999707698822021
1747237106864638500,3.124638427734375,0.15871161222457886,0.8226028084754944,-0.8080299496650696
1747237106874669800,3.134669921875,0.1953716278076172,0.8007938861846924,-0.21819572150707245
1747237106884700700,3.14470068359375,-0.09853003174066544,0.39367884397506714,-0.03832235559821129
1747237106894731800,3.154731689453125,-0.28657078742980957,0.02515302412211895,0.29751157760620117
1747237106904762600,3.1647626953125,-0.37061747908592224,-0.06745840609073639,0.4854511320590973
1747237106914793700,3.174793701171875,-0.2666897475719452,0.20007583498954773,0.581371009349823
1747237106924824800,3.184824951171875,-0.30937036871910095,-0.5121719241142273,0.5372775793075562
1747237106934854700,3.194854736328125,-0.1836118996143341,-1.4319233894348145,0.8022277355194092
1747237106944885800,3.2048857421875,0.027112044394016266,-1.4675508737564087,1.1847436428070068
1747237106954916600,3.21491650390625,0.3013470470905304,-1.048134446144104,1.4632210731506348
1747237106964947700,3.22494775390625,0.5947510004043579,-0.7443455457687378,1.571373462677002
1747237106974978600,3.234978515625,0.8678964972496033,-0.5266537070274353,1.603522539138794
1747237106985009700,3.245009765625,1.2710378170013428,-0.6407240629196167,1.6076136827468872
1747237106995040800,3.255040771484375,1.4524036645889282,-2.013972759246826,0.8285866379737854
1747237107005071600,3.265071533203125,1.4140706062316895,-2.0213186740875244,0.4366692006587982
1747237107015102700,3.275102783203125,1.3875555992126465,-1.5663338899612427,0.24942314624786377
1747237107025133600,3.285133544921875,1.2779513597488403,-1.3657313585281372,0.24671684205532074
1747237107035163600,3.29516357421875,0.875471830368042,-1.41194748878479,0.32130691409111023
1747237107045194800,3.30519482421875,0.1738751232624054,-1.2098677158355713,0.44534656405448914
1747237107055225600,3.3152255859375,-0.5716360807418823,-0.8209694623947144,0.5102174282073975
1747237107065256700,3.325256591796875,-1.0764776468276978,-0.35359296202659607,0.462876558303833
1747237107075287600,3.33528759765625,-1.323240041732788,0.3679569661617279,0.4024691581726074
1747237107085319000,3.34531884765625,-1.4259169101715088,1.1896417140960693,0.425361692905426
1747237107095349800,3.355349853515625,-1.4094271659851074,2.1363942623138428,0.5883021354675293
1747237107105380900,3.365380859375,-1.193163275718689,2.66849946975708,0.6846369504928589
1747237107115411700,3.37541162109375,-0.7887281775474548,2.8204123973846436,0.5137738585472107
1747237107125442800,3.38544287109375,-0.36751383543014526,2.519517660140991,0.22784142196178436
1747237107135473000,3.395472900390625,-0.08764489740133286,1.6743874549865723,-0.00506959343329072
1747237107145503700,3.405503662109375,-0.02045867033302784,0.8991918563842773,-0.06914658099412918
1747237107155534800,3.415534912109375,-0.0592806339263916,0.44996264576911926,0.15669427812099457
1747237107165565700,3.425565673828125,-0.11530075967311859,0.4452291429042816,0.5398688316345215
1747237107175596800,3.4355966796875,-0.09995695948600769,1.069413661956787,0.7168196439743042
1747237107185627600,3.445627685546875,-0.05293671786785126,1.9631664752960205,0.634048342704773
1747237107195658800,3.45565869140625,0.009965548291802406,2.8199565410614014,0.4276602566242218
1747237107205689600,3.465689697265625,0.01197809912264347,3.157625675201416,0.22933198511600494
1747237107215720700,3.475720703125,-0.03407035395503044,2.1405444145202637,0.02899276837706566
1747237107225751600,3.48575146484375,-0.12038207054138184,0.45830073952674866,0.3993564546108246
1747237107235781600,3.49578173828125,-0.029315810650587082,0.08447067439556122,0.7232879400253296
1747237107245812700,3.505812744140625,0.11637347936630249,-0.04319008067250252,0.8665622472763062
1747237107255843600,3.515843505859375,0.035890091210603714,-0.44577693939208984,0.8852477669715881
1747237107265874700,3.525874755859375,-0.14186419546604156,-0.6891033053398132,0.8151105046272278
1747237107275905500,3.535905517578125,-0.26929566264152527,-0.6474922299385071,0.7018987536430359
1747237107285936600,3.5459365234375,-0.3078465163707733,-0.1854199320077896,0.7047137022018433
1747237107295967500,3.555967529296875,-0.4740447998046875,0.294570654630661,0.5075015425682068
1747237107305998000,3.565998046875,-0.716607928276062,0.9169703125953674,0.2626665234565735
1747237107316029200,3.576029296875,-0.8724244236946106,1.6466699838638306,-0.028328044340014458
1747237107326060300,3.586060302734375,-0.864858090877533,2.0845131874084473,-0.3789755403995514
1747237107336090000,3.596090087890625,-0.8061436414718628,1.4997040033340454,-0.598704993724823
1747237107346121000,3.606120849609375,-0.738811194896698,0.35442838072776794,-0.5348485112190247
1747237107356152300,3.61615234375,-0.7065078616142273,-0.5800495147705078,-0.3424028754234314
1747237107366183200,3.62618310546875,-0.7814399003982544,-1.0157639980316162,-0.12144546955823898
1747237107376214300,3.63621435546875,-0.9294748902320862,-1.0292019844055176,0.03617025539278984
1747237107386245400,3.646245361328125,-1.059634804725647,-0.6807228922843933,0.06805548071861267
1747237107396276200,3.656276123046875,-1.1306415796279907,-0.16003601253032684,0.0464354082942009
1747237107406307300,3.666307373046875,-1.159555196762085,0.20099781453609467,0.016518255695700645
1747237107416338200,3.676338134765625,-1.2113862037658691,0.3293747007846832,-0.05880739167332649
1747237107426368300,3.6863681640625,-1.31675386428833,0.2352820187807083,-0.112962506711483
1747237107436399000,3.696399169921875,-1.453772783279419,-0.010793525725603104,-0.054973501712083817
1747237107446430200,3.70643017578125,-1.5786052942276,-0.31926026940345764,0.10410909354686737
1747237107456461300,3.71646142578125,-1.707428216934204,-0.42867305874824524,0.2741503417491913
1747237107466492200,3.7264921875,-1.9308466911315918,-0.4122312366962433,0.3466045558452606
1747237107476523300,3.736523193359375,-2.23264217376709,-0.3345143496990204,0.3187617361545563
1747237107486554000,3.74655419921875,-2.4730350971221924,-0.21515971422195435,0.26096341013908386
1747237107496585200,3.756585205078125,-2.563765287399292,-0.015482819639146328,0.23558641970157623
1747237107506616000,3.766615966796875,-2.4563002586364746,0.12825916707515717,0.23517736792564392
1747237107516647200,3.776647216796875,-2.225097417831421,0.2093510925769806,0.2750483453273773
1747237107526677200,3.78667724609375,-2.140239953994751,0.1268993616104126,0.3504253923892975
1747237107536708000,3.7967080078125,-2.1564652919769287,-0.0779975950717926,0.31406843662261963
1747237107546739200,3.8067392578125,-2.2140345573425293,-0.2608225345611572,0.15685433149337769
1747237107556770000,3.81677001953125,-2.147915840148926,-0.40317222476005554,-0.04418423771858215
1747237107566801200,3.82680126953125,-1.8351975679397583,-0.275931179523468,-0.23274482786655426
1747237107576832300,3.836832275390625,-1.7259243726730347,-0.3251464068889618,-0.23332220315933228
1747237107586863400,3.84686328125,-1.8155328035354614,-0.35528379678726196,-0.16186639666557312
1747237107596894200,3.856894287109375,-1.7623039484024048,-0.24864070117473602,-0.14339417219161987
1747237107606925300,3.86692529296875,-1.5450520515441895,-0.16313353180885315,-0.22717323899269104
1747237107616955400,3.876955322265625,-1.4098750352859497,-0.36009347438812256,-0.2220413237810135
1747237107626986200,3.886986328125,-1.2227203845977783,-0.5265833735466003,-0.20423516631126404
1747237107637017300,3.897017333984375,-1.076676607131958,-0.41830751299858093,-0.17753218114376068
1747237107647048200,3.907048095703125,-0.9613827466964722,-0.016686035320162773,-0.09934017062187195
1747237107657079300,3.917079345703125,-0.7893772125244141,0.3641550540924072,-0.018617093563079834
1747237107667110100,3.927110107421875,-0.6443017721176147,0.4110320210456848,0.07323399931192398
1747237107677141200,3.937141357421875,-0.4312478005886078,0.24431626498699188,0.1436128318309784
1747237107687172000,3.947172119140625,-0.14579609036445618,0.11608026921749115,0.0487278588116169
1747237107697203200,3.957203125,0.025355957448482513,0.23257093131542206,-0.12723997235298157
1747237107707233300,3.9672333984375,0.06567834317684174,0.3710515797138214,-0.2700807452201843
1747237107717264100,3.97726416015625,0.143794983625412,0.4494006931781769,-0.33479610085487366
1747237107727295200,3.987295166015625,0.2574560344219208,0.44087353348731995,-0.26484498381614685
1747237107737326000,3.997326171875,0.35813045501708984,0.33486002683639526,-0.10044538229703903
1747237107747357200,4.007357177734375,0.4145415127277374,0.14143116772174835,0.038129277527332306
1747237107757388000,4.017387939453125,0.41193827986717224,0.27783453464508057,0.002951048780232668
1747237107767419100,4.027419189453125,0.2901058495044708,0.9724865555763245,-0.23078180849552155
1747237107777450000,4.037449951171875,0.2542770206928253,1.0909767150878906,-0.3115038275718689
1747237107787481000,4.047481201171875,0.4343163073062897,0.6775577068328857,-0.26210272312164307
1747237107797511200,4.05751123046875,0.6637689471244812,0.4094700813293457,-0.2598550021648407
1747237107807542000,4.0675419921875,0.879352331161499,0.2529797852039337,-0.2430723011493683
1747237107817573000,4.077572998046875,0.9392462968826294,-0.05277692899107933,-0.1113361120223999
1747237107827604200,4.087604248046875,1.0463464260101318,0.027065971866250038,0.11344639956951141
1747237107837635300,4.09763525390625,1.1034165620803833,0.05666700750589371,0.31012991070747375
1747237107847666200,4.107666259765625,0.9109736680984497,-0.2230605185031891,0.3697144091129303
1747237107857697300,4.117697265625,0.7001237273216248,-0.5809470415115356,0.32484227418899536
1747237107867728100,4.12772802734375,0.53504878282547,-0.625980794429779,0.24374261498451233
1747237107877759200,4.13775927734375,0.41197824478149414,-0.5069468021392822,0.17518407106399536
1747237107887789300,4.147789306640625,0.40689852833747864,-0.4563491642475128,0.1645018607378006
1747237107897820200,4.157820068359375,0.46918025612831116,-0.5371854305267334,0.13005226850509644
1747237107907851300,4.167851318359375,0.4642963111400604,-0.8535817265510559,0.14267192780971527
1747237107917882000,4.177882080078125,0.5125709176063538,-1.3822407722473145,0.3080100119113922
1747237107927913200,4.187913330078125,0.507935643196106,-1.9472945928573608,0.587280809879303
1747237107937944000,4.197944091796875,0.4000030755996704,-2.22794771194458,0.7941591739654541
1747237107947975200,4.20797509765625,0.3967619836330414,-2.3496670722961426,0.8257375955581665
1747237107958006000,4.218006103515625,0.3897536098957062,-2.4484140872955322,0.7605252861976624
1747237107968037000,4.228037109375,0.36631646752357483,-2.621185541152954,0.7464446425437927
1747237107978067200,4.238067138671875,0.22342856228351593,-2.8831822872161865,0.852148711681366
1747237107988098000,4.24809814453125,0.13193060457706451,-2.894345998764038,1.028792381286621
1747237107998129200,4.258129150390625,-0.2772420048713684,-2.72910737991333,1.0143306255340576
1747237108008160000,4.268159912109375,-1.2892926931381226,-2.7147932052612305,0.6664445996284485
1747237108018191000,4.278191162109375,-2.856806755065918,-3.099518060684204,-0.13763323426246643
1747237108028222200,4.28822216796875,-4.6166486740112305,-4.1146979331970215,-1.3919501304626465
1747237108038253000,4.298253173828125,-5.16644811630249,-3.7694711685180664,-2.207730531692505
1747237108048284400,4.308284423828125,-4.77868127822876,-2.6995222568511963,-2.003122091293335
1747237108058315300,4.318315185546875,-3.8791775703430176,-1.3837214708328247,-0.9141960740089417
1747237108068345000,4.328344970703125,-2.3062000274658203,0.0043444144539535046,0.5552179217338562
1747237108078376200,4.338376220703125,-0.3448127806186676,0.5397758483886719,1.735695481300354
1747237108088407300,4.3484072265625,0.9432080388069153,0.42700672149658203,2.2186973094940186
1747237108098438100,4.358438232421875,1.1581597328186035,-0.28454411029815674,2.111149787902832
1747237108108469200,4.36846923828125,0.9857876896858215,-0.6761406660079956,1.6371289491653442
1747237108118500400,4.378500244140625,0.6945899724960327,-0.5949991941452026,0.9579685926437378
1747237108128531200,4.38853125,0.37450969219207764,-0.29563963413238525,0.19023679196834564
1747237108138562300,4.398562255859375,0.1807577908039093,0.25521284341812134,-0.5357326865196228
1747237108148593200,4.40859326171875,0.08780122548341751,0.9733874797821045,-1.0858266353607178
1747237108158623200,4.418623291015625,0.033537186682224274,1.6883940696716309,-1.4499775171279907
1747237108168654000,4.428654052734375,0.014888402074575424,2.2477779388427734,-1.659615397453308
1747237108178685200,4.438685302734375,0.04958273097872734,2.632279634475708,-1.7620816230773926
1747237108188716300,4.44871630859375,0.150198295712471,2.8819546699523926,-1.7861461639404297
1747237108198747100,4.4587470703125,0.308807373046875,2.9323484897613525,-1.760708212852478
1747237108208778200,4.4687783203125,0.5157075524330139,2.8056821823120117,-1.6928223371505737
1747237108218809000,4.47880908203125,0.7993038296699524,2.567636251449585,-1.5950510501861572
1747237108228840200,4.488840087890625,1.164787769317627,2.186079502105713,-1.5757626295089722
1747237108238871000,4.49887109375,1.627285122871399,1.3373939990997314,-1.3469290733337402
1747237108248901000,4.508901123046875,2.1281867027282715,0.21924899518489838,-0.6732710599899292
1747237108258932200,4.51893212890625,2.6192939281463623,-0.04219592362642288,0.11827311664819717
1747237108268963000,4.528963134765625,2.9466969966888428,0.9731416702270508,0.39251184463500977
1747237108278994200,4.538994140625,2.9802815914154053,2.2877025604248047,0.03146151825785637
1747237108289025000,4.54902490234375,2.883281946182251,3.172973871231079,-0.5855452418327332
1747237108299056400,4.559056396484375,2.832695245742798,3.297136068344116,-1.1274356842041016
1747237108309087000,4.5690869140625,2.8430535793304443,2.7537405490875244,-1.2684146165847778
1747237108319118000,4.5791181640625,2.839452028274536,1.3325048685073853,-0.8117943406105042
1747237108329149000,4.58914892578125,2.7070348262786865,0.7283939719200134,-0.2413063645362854
1747237108339179000,4.599178955078125,2.41575288772583,0.8704779148101807,-0.10268323868513107
1747237108349210000,4.609210205078125,2.15802001953125,0.5444337725639343,0.17917028069496155
1747237108359241000,4.619240966796875,1.8871604204177856,0.47559475898742676,0.30113348364830017
1747237108369272000,4.62927197265625,1.5884772539138794,0.544992208480835,0.2216367870569229
1747237108379303000,4.639302978515625,1.430765151977539,1.8572877645492554,-0.1271217316389084
1747237108389334000,4.649333984375,0.8989420533180237,1.1534816026687622,-0.24136202037334442
1747237108399364900,4.65936474609375,0.21188029646873474,0.6020957231521606,-0.14350682497024536
1747237108409396000,4.66939599609375,-0.21586278080940247,0.06353104114532471,-0.0014455638593062758
1747237108419426800,4.6794267578125,-0.2976628541946411,-0.40111520886421204,0.10962928831577301
1747237108429457000,4.689456787109375,-0.19626805186271667,-0.48784130811691284,0.11925368756055832
1747237108439488000,4.699488037109375,-0.07125287503004074,-0.3034522831439972,0.0749908909201622
1747237108449518800,4.709518798828125,0.018137991428375244,-0.08460836112499237,0.027817249298095703
1747237108459550000,4.719550048828125,0.061708904802799225,0.03909946605563164,-0.009578058496117592
1747237108469580800,4.729580810546875,0.050160638988018036,-0.036745231598615646,0.001187503570690751
1747237108479612000,4.73961181640625,0.015327823348343372,-0.13852964341640472,0.03464373201131821
1747237108489642800,4.749642822265625,-0.009591108188033104,-0.15745380520820618,0.050344131886959076
1747237108499673900,4.759673828125,-0.01155705377459526,-0.120200976729393,0.08490397036075592
1747237108509704000,4.769703857421875,-0.031502265483140945,0.0381641648709774,0.09274564683437347
1747237108519734800,4.77973486328125,-0.03130678832530975,0.21453067660331726,0.07322441041469574
1747237108529766000,4.789765869140625,0.002514823107048869,0.29848816990852356,0.08768857270479202
1747237108539796700,4.799796630859375,0.021468540653586388,0.2991992235183716,0.09450013935565948
1747237108549828000,4.809828125,0.03166178986430168,0.2558980882167816,0.05661880597472191
1747237108559859000,4.81985888671875,0.07414054125547409,0.2047310471534729,0.013574131764471531
1747237108569890000,4.82989013671875,0.14328286051750183,0.20336297154426575,-0.000046871635277057067
1747237108579921000,4.8399208984375,0.1497197151184082,0.23115918040275574,0.007909588515758514
1747237108589952000,4.849951904296875,0.08737219125032425,0.28767332434654236,-0.007870705798268318
1747237108599982000,4.859982177734375,0.0013539510546252131,0.3483148217201233,-0.04163159802556038
1747237108610013000,4.870012939453125,-0.09875320643186569,0.4347389340400696,-0.12468600273132324
1747237108620044000,4.8800439453125,-0.1911049783229828,0.8226033449172974,-0.3780194818973541
1747237108630075000,4.890074951171875,-0.20211075246334076,1.5043962001800537,-0.7222615480422974
1747237108640106000,4.90010595703125,-0.11845074594020844,1.8947744369506836,-0.8432228565216064
1747237108650136800,4.91013671875,0.015617309138178825,1.3672066926956177,-0.704137921333313
1747237108660168000,4.92016796875,0.11017577350139618,0.6449826955795288,-0.5356085896492004
1747237108670199000,4.930198974609375,0.2804151475429535,0.012673184275627136,-0.3001273274421692
1747237108680230000,4.94022998046875,0.4654736816883087,-0.30916929244995117,-0.030528347939252853
1747237108690260000,4.950260009765625,0.594072163105011,-0.35294899344444275,0.16305390000343323
1747237108700290800,4.960290771484375,0.6582655310630798,-0.274476557970047,0.26045846939086914
1747237108710322000,4.970322021484375,0.5606728792190552,-0.34137678146362305,0.2525148093700409
1747237108720352800,4.980352783203125,0.4838191270828247,-0.5662319660186768,0.18273305892944336
1747237108730384000,4.9903837890625,0.4654742181301117,-0.561728835105896,0.08762305974960327
1747237108740415000,5.0004150390625,0.4596850275993347,-0.6476386785507202,-0.0024671524297446012
1747237108750445800,5.01044580078125,0.5694410800933838,-0.8586907386779785,0.002145442645996809
1747237108760477000,5.020476806640625,0.6993674039840698,-0.9239405989646912,0.1098354235291481
1747237108770508000,5.030508056640625,0.7629660964012146,-1.210505723953247,0.2856866121292114
1747237108780537900,5.040537841796875,0.6990494132041931,-1.189270257949829,0.3840661644935608
1747237108790568700,5.050568603515625,0.41193801164627075,-0.6747829914093018,0.3056795001029968
1747237108800600000,5.06060009765625,0.05760443955659866,-0.20117439329624176,0.0718398317694664
1747237108810631000,5.070630859375,-0.03591565787792206,-0.06650392711162567,-0.11469782143831253
1747237108820662000,5.080662109375,0.00005725796290789731,-0.24693815410137177,-0.11017017811536789
1747237108830693000,5.090693115234375,0.064529187977314,-0.4239344894886017,-0.02298041619360447
1747237108840724000,5.100723876953125,0.07355277985334396,-0.5621573328971863,0.05489600449800491
1747237108850755000,5.110755126953125,0.06846081465482712,-0.42091819643974304,0.051002196967601776
1747237108860785000,5.120784912109375,0.01848287135362625,-0.30520811676979065,-0.0008809737046249211
1747237108870816000,5.13081591796875,-0.030408505350351334,-0.38256335258483887,-0.05415964126586914
1747237108880847000,5.14084716796875,-0.06298588961362839,-0.5202139019966125,-0.10493094474077225
1747237108890878000,5.1508779296875,-0.1241733506321907,-0.6084974408149719,-0.13553784787654877
1747237108900909000,5.160908935546875,-0.19255027174949646,-0.617315411567688,-0.14202743768692017
1747237108910940000,5.17093994140625,-0.22287622094154358,-0.5605706572532654,-0.09985122829675674
1747237108920971000,5.180970947265625,-0.16959542036056519,-0.49852511286735535,-0.009618538431823254
1747237108931001900,5.191001953125,-0.08928726613521576,-0.38656288385391235,0.07859920710325241
1747237108941033000,5.201032958984375,-0.0313938744366169,-0.24837945401668549,0.12219754606485367
1747237108951063800,5.211063720703125,-0.04177727550268173,-0.1858886480331421,0.13553358614444733
1747237108961094000,5.221093994140625,-0.04820933938026428,-0.17252783477306366,0.11913277953863144
1747237108971125000,5.231125,-0.037513021379709244,-0.1824696809053421,0.07512670755386353
1747237108981155800,5.24115576171875,-0.001975532853975892,-0.14891357719898224,0.011124822311103344
1747237108991187000,5.25118701171875,0.030952855944633484,-0.16739192605018616,-0.026666764169931412
1747237109001217800,5.2612177734375,0.11753861606121063,-0.28524506092071533,0.013590909540653229
1747237109011249000,5.271248779296875,0.212890163064003,-0.4211355149745941,0.09016424417495728
1747237109021280000,5.281280029296875,0.26821520924568176,-0.33830001950263977,0.10040383785963058
1747237109031311000,5.29131103515625,0.1519612967967987,-0.0020607539918273687,0.044438570737838745
1747237109041342000,5.301342041015625,0.05096544697880745,0.09224338084459305,-0.008496016263961792
1747237109051372000,5.3113720703125,-0.00788242369890213,0.16224776208400726,-0.04571076110005379
1747237109061403100,5.321403076171875,-0.045708633959293365,0.224956676363945,-0.054667770862579346
1747237109071434000,5.33143408203125,-0.04291364550590515,0.2336423099040985,-0.04292669519782066
1747237109081465000,5.341465087890625,-0.0239572636783123,0.23741547763347626,-0.05548376590013504
1747237109091496000,5.351495849609375,-0.047018375247716904,0.17698942124843597,-0.0627848207950592
1747237109101527000,5.361527099609375,-0.12224921584129333,0.08020162582397461,-0.041668884456157684
1747237109111558000,5.371557861328125,-0.17040768265724182,0.08266185969114304,-0.00891173630952835
1747237109121589000,5.381589111328125,-0.20358534157276154,0.138040691614151,-0.004120708908885717
1747237109131619800,5.391619873046875,-0.20637953281402588,0.1668475717306137,-0.027062511071562767
1747237109141650000,5.40164990234375,-0.1764266937971115,0.12783145904541016,-0.039673641324043274
1747237109151681000,5.411680908203125,-0.14344798028469086,0.12427934259176254,-0.033974744379520416
1747237109161711900,5.4217119140625,-0.14934873580932617,0.17493000626564026,-0.012801549397408962
1747237109171743000,5.431742919921875,-0.1412372887134552,0.21926231682300568,-0.005575860384851694
1747237109181773800,5.44177392578125,-0.12646739184856415,0.26955291628837585,-0.035884495824575424
1747237109191805000,5.451804931640625,-0.08345414698123932,0.28533586859703064,-0.05790670961141586
1747237109201835800,5.461835693359375,-0.04243587329983711,0.24961994588375092,-0.05143682658672333
1747237109211867000,5.471866943359375,-0.04234505817294121,0.15568546950817108,-0.026206836104393005
1747237109221897700,5.481897705078125,-0.036676522344350815,0.12781281769275665,-0.019452527165412903
1747237109231927800,5.491927734375,-0.009875267744064331,0.20039008557796478,-0.020930316299200058
1747237109241959000,5.501958984375,-0.023363113403320312,0.17030303180217743,-0.016038354486227036
1747237109251989800,5.51198974609375,-0.03003619611263275,0.10434797406196594,0.005558017175644636
1747237109262020900,5.522020751953125,0.01564580574631691,-0.038299717009067535,0.024561801925301552
1747237109272052000,5.532052001953125,0.02310558594763279,-0.08543021231889725,-0.020183565095067024
1747237109282083000,5.5420830078125,0.023482423275709152,-0.20077571272850037,-0.04694646969437599
1747237109292114000,5.552114013671875,0.010008958168327808,-0.24665266275405884,-0.07085233181715012
1747237109302145300,5.562145263671875,0.01877395436167717,-0.2221318632364273,-0.06472893059253693
1747237109312176000,5.572176025390625,0.021617943421006203,-0.19293349981307983,-0.06522826850414276
1747237109322206200,5.582206298828125,-0.06284474581480026,-0.05283844843506813,-0.10114765912294388
1747237109332237300,5.5922373046875,-0.12471503764390945,0.1348065435886383,-0.13574132323265076
1747237109342268200,5.60226806640625,-0.1402127742767334,0.06258881092071533,-0.04008137434720993
1747237109352299300,5.61229931640625,-0.14568182826042175,0.08636391907930374,0.04363429546356201
1747237109362330000,5.622330078125,-0.11438010632991791,0.12744051218032837,0.055452872067689896
1747237109372361200,5.632361328125,-0.06262103468179703,0.02876959554851055,0.04193413257598877
1747237109382392000,5.64239208984375,-0.014066550880670547,-0.08833438903093338,0.012896623462438583
1747237109392423200,5.652423095703125,-0.017739582806825638,-0.15674114227294922,-0.015689747408032417
1747237109402454000,5.6624541015625,-0.026429209858179092,-0.15851081907749176,-0.038482945412397385
1747237109412485000,5.672485107421875,-0.02796958200633526,-0.18159429728984833,-0.030482009053230286
1747237109422515200,5.68251513671875,-0.015204785391688347,-0.18807563185691833,-0.018334532156586647
1747237109432546000,5.692546142578125,0.031676970422267914,-0.17421361804008484,-0.010441189631819725
1747237109442577200,5.7025771484375,0.09384340792894363,-0.10608489066362381,0.009702694602310658
1747237109452608000,5.71260791015625,0.21640074253082275,-0.20896120369434357,0.029625803232192993
1747237109462639000,5.72263916015625,0.10131809860467911,-0.15882399678230286,0.0038754320703446865
1747237109472670000,5.732669921875,0.03885019198060036,-0.23864692449569702,-0.03885338827967644
1747237109482701300,5.742701416015625,0.014750449918210506,-0.19610053300857544,-0.06877800077199936
1747237109492732200,5.752732177734375,0.026085130870342255,-0.11538118869066238,-0.07973424345254898
1747237109502763300,5.76276318359375,0.047165647149086,-0.10080410540103912,-0.05781030282378197
1747237109512793300,5.77279345703125,0.0564531572163105,-0.09363088756799698,-0.008444617502391338
1747237109522824200,5.78282421875,0.07618477940559387,-0.11946594715118408,0.02761724591255188
1747237109532855300,5.792855224609375,0.09889036417007446,-0.12887142598628998,0.03554148226976395
1747237109542886100,5.80288623046875,0.0875101387500763,-0.11534949392080307,0.032280441373586655
1747237109552917200,5.812917236328125,0.08351566642522812,-0.10853872448205948,0.032712671905756
1747237109562948400,5.8229482421875,0.07373201102018356,-0.06797851622104645,0.03166152164340019
1747237109572979200,5.832979248046875,0.05625554919242859,-0.03370709717273712,0.02557140588760376
1747237109583010300,5.84301025390625,0.02900821529328823,-0.03826749324798584,-0.007985222153365612
1747237109593041200,5.853041259765625,0.01732279732823372,-0.01085717510432005,-0.031009048223495483
1747237109603072300,5.863072265625,0.010725880973041058,0.03536438196897507,-0.0352136455476284
1747237109613102000,5.87310205078125,0.035055723041296005,0.022672289982438087,-0.007379619404673576
1747237109623133200,5.88313330078125,0.047208525240421295,0.006614226847887039,0.00833596009761095
1747237109633164300,5.893164306640625,0.05561479181051254,0.005506884306669235,0.00911759864538908
1747237109643195100,5.903195068359375,0.035231489688158035,0.0435810312628746,-0.0023821976501494646
1747237109653226200,5.913226318359375,0.01787780039012432,0.12719124555587769,-0.016801349818706512
1747237109663257000,5.923257080078125,0.024459537118673325,0.2154366821050644,-0.007616107817739248
1747237109673288200,5.9332880859375,0.03943156078457832,0.26326093077659607,0.011604724451899529
1747237109683319000,5.943319091796875,0.02008849009871483,0.24631789326667786,0.018805645406246185
1747237109693350100,5.95335009765625,0.0018168084789067507,0.2031472623348236,0.001287904684431851
1747237109703381200,5.96338134765625,-0.053711965680122375,0.17528313398361206,-0.033375535160303116
1747237109713411000,5.9734111328125,-0.1006469801068306,0.1662217378616333,-0.05830032378435135
1747237109723442200,5.983442138671875,-0.20974203944206238,0.30120670795440674,-0.09119781851768494
1747237109733473300,5.993473388671875,-0.14891117811203003,0.41571491956710815,-0.07150827348232269
1747237109743504400,6.00350439453125,-0.187519833445549,0.2789112627506256,0.0185284111648798
1747237109753535200,6.01353515625,-0.09374672919511795,0.18762822449207306,0.053521815687417984
1747237109763566300,6.02356640625,-0.02545822225511074,0.17951516807079315,0.05355217307806015
1747237109773597200,6.03359716796875,-0.03128015995025635,0.19147995114326477,0.038186002522706985
1747237109783628300,6.043628173828125,0.011412710882723331,0.24459749460220337,0.003204581793397665
1747237109793659100,6.0536591796875,-0.006715693045407534,0.2890610992908478,-0.010177535936236382
1747237109803690200,6.063690185546875,-0.048293229192495346,0.25971758365631104,-0.008255799300968647
1747237109813720300,6.07372021484375,-0.1111089438199997,0.26701971888542175,-0.0235239677131176
1747237109823751200,6.083751220703125,-0.12797313928604126,0.20263433456420898,-0.030431674793362617
1747237109833782300,6.0937822265625,-0.220567524433136,0.1902035027742386,-0.06423171609640121
1747237109843813000,6.103813232421875,-0.2178870588541031,0.1636057049036026,-0.09059860557317734
1747237109853844200,6.11384423828125,-0.07861145585775375,0.2634742558002472,-0.09964004158973694
1747237109863875000,6.123875,0.008022773079574108,0.18592619895935059,-0.054767906665802
1747237109873906200,6.13390625,0.012387161143124104,0.06069663539528847,0.0027917916886508465
1747237109883937000,6.14393701171875,-0.014787468127906322,-0.033235449343919754,0.029293440282344818
1747237109893968100,6.153968017578125,-0.03840704262256622,0.034033335745334625,-0.005150021053850651
1747237109903999000,6.1639990234375,-0.050580088049173355,0.109731025993824,-0.02087705209851265
1747237109914029000,6.174029052734375,-0.036436304450035095,0.13482226431369781,-0.010310428217053413
1747237109924060200,6.18406005859375,-0.021816082298755646,0.1323780119419098,0.010977549478411674
1747237109934091000,6.194091064453125,-0.07839520275592804,0.0754697248339653,0.028303543105721474
1747237109944122000,6.2041220703125,-0.1325194239616394,0.009214537218213081,0.026752518489956856
1747237109954153200,6.2141533203125,-0.14752741158008575,-0.0394589938223362,0.005160140804946423
1747237109964184300,6.224184326171875,-0.15663301944732666,-0.06663122773170471,-0.02340305969119072
1747237109974215200,6.234215087890625,-0.04566336050629616,-0.05163336545228958,-0.041958633810281754
1747237109984246300,6.244246337890625,-0.06917721033096313,-0.1527314931154251,-0.019279422238469124
1747237109994277000,6.254277099609375,0.04809056222438812,-0.1273275911808014,-0.017015201970934868
1747237110004308200,6.26430810546875,0.02773682214319706,-0.11555775254964828,0.018428541719913483
1747237110014339300,6.27433935546875,0.011034009046852589,-0.13329866528511047,0.030978156253695488
1747237110024369200,6.284369140625,0.008838765323162079,-0.11448796093463898,0.019895145669579506
1747237110034400300,6.294400146484375,-0.01022707112133503,-0.0819726288318634,0.008863000199198723
1747237110044431000,6.30443115234375,-0.05041097477078438,-0.030945133417844772,0.005392634775489569
1747237110054462200,6.314462158203125,-0.08668775856494904,-0.020725784823298454,0.018760371953248978
1747237110064493000,6.3244931640625,-0.13376152515411377,-0.03484053909778595,0.02101047709584236
1747237110074524200,6.334524169921875,-0.1282503753900528,-0.009699499234557152,0.017465543001890182
1747237110084555300,6.34455517578125,-0.14444532990455627,-0.048111867159605026,0.018863702192902565
1747237110094586000,6.354586181640625,-0.18088775873184204,-0.08647496998310089,0.0005227785441093147
1747237110104617200,6.3646171875,-0.12040737271308899,-0.09108436852693558,-0.02454502321779728
1747237110114647000,6.37464697265625,0.02322036772966385,-0.09062550961971283,-0.0059867859818041325
1747237110124678100,6.38467822265625,-0.07406970113515854,-0.12822507321834564,0.04541754722595215
1747237110134709000,6.394708984375,-0.09746530652046204,-0.09221434593200684,0.05337134748697281
1747237110144740000,6.404739990234375,-0.17988906800746918,-0.07898589223623276,0.05269703269004822
1747237110154771200,6.414771240234375,-0.16279157996177673,-0.05523555725812912,0.03465678170323372
1747237110164802000,6.424802001953125,-0.14454573392868042,-0.04060281813144684,0.026443591341376305
1747237110174833400,6.43483349609375,-0.07268299162387848,-0.030763771384954453,0.043235622346401215
1747237110184864300,6.4448642578125,-0.017309747636318207,-0.06017066165804863,0.06609433144330978
1747237110194895400,6.454895263671875,-0.09559176862239838,-0.13636796176433563,0.08021867275238037
1747237110204926200,6.46492626953125,-0.13386991620063782,-0.148687481880188,0.039372704923152924
1747237110214957300,6.474957275390625,-0.20292888581752777,-0.16676580905914307,0.009982326999306679
1747237110224987400,6.4849873046875,-0.26496243476867676,-0.1618373692035675,-0.024646490812301636
1747237110235018200,6.495018310546875,-0.14548982679843903,-0.15348276495933533,-0.03455078601837158
1747237110245049300,6.50504931640625,-0.07613231986761093,-0.16003361344337463,0.0024383901618421078
1747237110255080200,6.515080078125,-0.03622777760028839,-0.18399274349212646,0.047385357320308685
1747237110265111300,6.525111328125,-0.020292755216360092,-0.19129273295402527,0.09458322823047638
1747237110275142100,6.53514208984375,0.007561779581010342,-0.21246299147605896,0.09883523732423782
1747237110285173200,6.54517333984375,0.036489035934209824,-0.22628799080848694,0.09934656322002411
1747237110295204000,6.5552041015625,0.0579671636223793,-0.27129700779914856,0.1181495413184166
1747237110305236200,6.565236328125,0.056280847638845444,-0.3250875473022461,0.16396789252758026
1747237110315267000,6.57526708984375,0.07584336400032043,-0.42066147923469543,0.23119620978832245
1747237110325298200,6.585298095703125,0.1038033589720726,-0.5734398365020752,0.28026360273361206
1747237110335328000,6.595327880859375,0.13636423647403717,-0.7175019383430481,0.30952563881874084
1747237110345359000,6.605359130859375,0.2577929198741913,-0.8704323768615723,0.3221713900566101
1747237110355390000,6.615389892578125,0.4182971119880676,-0.9437755346298218,0.25148096680641174
1747237110365421000,6.625421142578125,0.5545716285705566,-0.8443804979324341,0.20543144643306732
1747237110375452200,6.6354521484375,0.7900485396385193,-0.634868323802948,0.20461465418338776
1747237110385483000,6.64548291015625,1.003983736038208,-0.36261120438575745,0.19785848259925842
1747237110395514000,6.65551416015625,0.8528105020523071,-0.0464354082942009,0.12399757653474808
1747237110405545000,6.665544921875,0.6551125645637512,0.4039786458015442,0.07600448280572891
1747237110415576000,6.675576171875,0.5032817721366882,0.8714573979377747,0.11908164620399475
1747237110425607000,6.68560693359375,0.42819181084632874,1.2467305660247803,0.17087826132774353
1747237110435638000,6.695637939453125,0.34382447600364685,1.2619223594665527,0.2826593816280365
1747237110445668000,6.705668212890625,0.19438013434410095,1.0926587581634521,0.41061389446258545
1747237110455699000,6.715698974609375,-0.01125185564160347,1.2766506671905518,0.550671398639679
1747237110465730000,6.72572998046875,-0.10957469791173935,1.2438740730285645,0.46868517994880676
1747237110475761200,6.73576123046875,-0.20755186676979065,1.1749496459960938,0.33307328820228577
1747237110485792300,6.745792236328125,-0.24961063265800476,1.1705522537231445,0.2706839442253113
1747237110495823000,6.755822998046875,-0.19678017497062683,0.963848352432251,0.1714327335357666
1747237110505854200,6.765854248046875,-0.07969855517148972,0.5278568863868713,-0.008592955768108368
1747237110515885000,6.775885009765625,0.09940514713525772,0.17134059965610504,-0.11684273183345795
1747237110525916200,6.785916259765625,0.29320791363716125,0.0633816346526146,-0.14372999966144562
1747237110535947000,6.795947021484375,0.5055707693099976,0.1008821427822113,-0.1776256561279297
1747237110545978000,6.80597802734375,0.7726208567619324,0.1924184411764145,-0.28919053077697754
1747237110556008200,6.81600830078125,0.8571200370788574,0.20570363104343414,-0.25874555110931396
1747237110566039000,6.8260390625,0.7460198402404785,-0.1141795665025711,-0.12699176371097565
1747237110576070100,6.836070068359375,0.5425844192504883,-0.49293461441993713,0.06580910831689835
1747237110586101000,6.84610107421875,0.2756859064102173,-0.585337221622467,0.2782934010028839
1747237110596132000,6.856132080078125,0.05330663174390793,-0.693313479423523,0.35588088631629944
1747237110606163000,6.866162841796875,-0.23104733228683472,0.029928071424365044,0.5546349883079529
1747237110616194000,6.876194091796875,-0.3203071653842926,0.521007239818573,0.5636900067329407
1747237110626225000,6.886224853515625,-0.20050780475139618,0.35214897990226746,0.2574280798435211
1747237110636256000,6.896256103515625,-0.06197415664792061,0.2409103512763977,0.1344081461429596
1747237110646286800,6.906286865234375,-0.03682778775691986,0.12272778153419495,0.1300075352191925
1747237110656318000,6.91631787109375,-0.061766959726810455,0.04193013906478882,0.14667385816574097
1747237110666348000,6.92634814453125,-0.08624140918254852,0.07665349543094635,0.18703140318393707
1747237110676379000,6.93637890625,-0.10855736583471298,0.14107882976531982,0.19706140458583832
1747237110686410000,6.946409912109375,-0.13615277409553528,0.19435030221939087,0.17180238664150238
1747237110696441000,6.956441162109375,-0.14914368093013763,0.22302669286727905,0.12982085347175598
1747237110706472200,6.96647216796875,-0.13310213387012482,0.17153127491474152,0.0815473198890686
1747237110716503000,6.9765029296875,-0.11766644567251205,0.10757146775722504,0.057915229350328445
1747237110726534100,6.9865341796875,-0.10848865658044815,0.0305176954716444,0.058713648468256
1747237110736565000,6.99656494140625,-0.10501749813556671,-0.03122503124177456,0.07599010318517685
1747237110746596000,7.00659619140625,-0.08806061744689941,-0.045041508972644806,0.08119738101959229
1747237110756627200,7.016627197265625,-0.06259892880916595,-0.03622644767165184,0.07143956422805786
1747237110766658000,7.026657958984375,-0.041901376098394394,-0.007156446576118469,0.05076304450631142
1747237110776689200,7.036689208984375,-0.019747605547308922,0.004576109815388918,0.022646456956863403
1747237110786719000,7.046718994140625,-0.015905464068055153,-0.0009499495499767363,0.005470931995660067
1747237110796750000,7.05675,-0.01925651915371418,-0.006980943959206343,-0.001017593895085156
1747237110806781000,7.066781005859375,-0.03428420424461365,0.003282346064224839,0.004035221878439188
1747237110816812000,7.07681201171875,-0.043889425694942474,0.009831857867538929,0.01067980844527483
1747237110826843100,7.086843017578125,-0.055142614990472794,0.006976150441914797,0.01465697307139635
1747237110836874000,7.0968740234375,-0.05799486115574837,-0.009224124252796173,0.013117666356265545
1747237110846905000,7.106905029296875,-0.0607331208884716,-0.02702416107058525,0.0035294874105602503
1747237110856936000,7.11693603515625,-0.059420716017484665,-0.036324985325336456,0.0034080471377819777
1747237110866967000,7.126967041015625,-0.05730190500617027,-0.041676074266433716,0.0005787048721686006
1747237110876998000,7.136997802734375,-0.05739405006170273,-0.046358708292245865,0.002121474128216505
1747237110887029200,7.147029296875,-0.05345070734620094,-0.05794825404882431,0.0023576964158564806
1747237110897059000,7.15705908203125,-0.051710598170757294,-0.07659704238176346,0.006829410325735807
1747237110907090000,7.16708984375,-0.045940328389406204,-0.10160119086503983,0.01335814967751503
1747237110917121300,7.177121337890625,-0.046303849667310715,-0.13973020017147064,0.0202725138515234
1747237110927152000,7.187152099609375,-0.04236290231347084,-0.16297879815101624,0.022250177338719368
1747237110937183200,7.197183349609375,-0.04965516924858093,-0.13254712522029877,0.02592507377266884
1747237110947214000,7.207214111328125,-0.0569748692214489,-0.09663413465023041,0.021862687543034554
1747237110957245200,7.2172451171875,-0.05314391106367111,-0.10688996315002441,0.01888420805335045
1747237110967276000,7.227276123046875,-0.05115426331758499,-0.1311068832874298,0.004735632799565792
1747237110977307100,7.23730712890625,-0.04958140105009079,-0.12864160537719727,-0.013704626820981503
1747237110987338000,7.247337890625,-0.05801190435886383,-0.10744602978229523,-0.02521640621125698
1747237110997369000,7.257369140625,-0.0767083615064621,-0.11436732113361359,-0.010897921398282051
1747237111007400000,7.26739990234375,-0.08897381275892258,-0.1590953767299652,0.006417952012270689
1747237111017430000,7.277429931640625,-0.09428948163986206,-0.17853325605392456,0.02070208266377449
1747237111027461000,7.287461181640625,-0.09234590828418732,-0.15350593626499176,0.012592757120728493
1747237111037492000,7.297491943359375,-0.09776810556650162,-0.09445033967494965,-0.0031787490006536245
1747237111047523000,7.307523193359375,-0.11868111044168472,-0.04747936874628067,-0.014394119381904602
1747237111057554000,7.317553955078125,-0.14234809577465057,-0.025537051260471344,-0.008218248374760151
1747237111067585000,7.3275849609375,-0.161537766456604,-0.025136245414614677,0.009622001089155674
1747237111077615900,7.337615966796875,-0.1715717613697052,-0.04316691309213638,0.026218820363283157
1747237111087647000,7.34764697265625,-0.17322291433811188,-0.06137281283736229,0.043118443340063095
1747237111097677800,7.357677734375,-0.16426590085029602,-0.06445036083459854,0.045091044157743454
1747237111107709200,7.367709228515625,-0.1490030586719513,-0.04842372611165047,0.03409858047962189
1747237111117740000,7.377739990234375,-0.12210992723703384,-0.029874010011553764,0.008712531067430973
1747237111127771100,7.387771240234375,-0.09689246118068695,0.0076392777264118195,-0.007003314793109894
1747237111137801200,7.39780126953125,-0.08522195369005203,0.04445002228021622,-0.011232147924602032
1747237111147832000,7.40783203125,-0.08120404183864594,0.05432688817381859,-0.007184942252933979
1747237111157863200,7.41786328125,-0.07290882617235184,0.056783389300107956,0.004884503781795502
1747237111167894000,7.42789404296875,-0.0678485557436943,0.058286476880311966,0.012676380574703217
1747237111177925000,7.437925048828125,-0.06180823966860771,0.06671032309532166,0.019959060475230217
1747237111187956000,7.4479560546875,-0.05361981689929962,0.07619410008192062,0.02857145667076111
1747237111197987000,7.457987060546875,-0.05275056138634682,0.08582436293363571,0.03346395120024681
1747237111208018200,7.46801806640625,-0.05004265904426575,0.08810775727033615,0.035709794610738754
1747237111218049000,7.478049072265625,-0.04658907279372215,0.0803622156381607,0.04424282908439636
1747237111228080000,7.488080078125,-0.04254266619682312,0.06888905167579651,0.04785407334566116
1747237111238111000,7.498111083984375,-0.044367466121912,0.06908639520406723,0.05142777040600777
1747237111248142000,7.50814208984375,-0.04285585507750511,0.08160804212093353,0.05228903889656067
1747237111258172200,7.518172119140625,-0.040398821234703064,0.0865282341837883,0.05411090701818466
1747237111268203000,7.528203125,-0.038663771003484726,0.08987502753734589,0.060677994042634964
1747237111278234000,7.538234130859375,-0.0360482819378376,0.07997259497642517,0.06699847429990768
1747237111288265000,7.548264892578125,-0.03153156116604805,0.06079490855336189,0.07033701241016388
1747237111298296000,7.558296142578125,-0.019487414509058,0.03271427005529404,0.07823728024959564
1747237111308327000,7.568326904296875,-0.011039068922400475,0.011231881566345692,0.08093932271003723
1747237111318358000,7.57835791015625,-0.0022895196452736855,-0.013966682367026806,0.08429543673992157
1747237111328389000,7.58838916015625,0.009170329198241234,-0.027712587267160416,0.08677750825881958
1747237111338420200,7.598420166015625,0.023426229134202003,-0.04448464512825012,0.09064628183841705
1747237111348451000,7.608451171875,0.03321201354265213,-0.05813414230942726,0.09372062981128693
1747237111358482200,7.618482177734375,0.04324360936880112,-0.06889624148607254,0.09280743449926376
1747237111368513000,7.628512939453125,0.04664899408817291,-0.07851637899875641,0.09108010679483414
1747237111378544000,7.638544189453125,0.054960984736680984,-0.07950734347105026,0.08997969329357147
1747237111388574200,7.64857421875,0.05788913369178772,-0.06942940503358841,0.08688803017139435
1747237111398605000,7.65860498046875,0.05744544789195061,-0.05724518001079559,0.08206237852573395
1747237111408636200,7.66863623046875,0.05510932579636574,-0.04664100334048271,0.07851078361272812
1747237111418667000,7.6786669921875,0.04735925793647766,-0.03870318830013275,0.07037190347909927
1747237111428698000,7.688697998046875,0.04086194559931755,-0.034923627972602844,0.06372225284576416
1747237111438729000,7.69872900390625,0.03213689848780632,-0.027722973376512527,0.05872563272714615
1747237111448760000,7.708760009765625,0.024954618886113167,-0.0018500980222597718,0.048887647688388824
1747237111458791000,7.718791015625,0.027403661981225014,0.014057495631277561,0.03317233547568321
1747237111468822000,7.728822021484375,0.03921584412455559,0.025416675955057144,0.02045920304954052
1747237111478852900,7.738852783203125,0.045893989503383636,0.038913045078516006,0.008897354826331139
1747237111488884000,7.748884033203125,0.054960187524557114,0.04487399756908417,0.0009502158500254154
1747237111498915000,7.7589150390625,0.06221490353345871,0.057973287999629974,-0.010292052291333675
1747237111508945000,7.76894482421875,0.06679101288318634,0.064360611140728,-0.019530026242136955
1747237111518976000,7.77897607421875,0.06324475258588791,0.07681914418935776,-0.026623355224728584
1747237111529006800,7.7890068359375,0.05533755570650101,0.089773029088974,-0.028111794963479042
1747237111539038000,7.799037841796875,0.04394189268350601,0.10063393414020538,-0.03262771666049957
1747237111549069000,7.809069091796875,0.031033016741275787,0.1145835667848587,-0.029348034411668777
1747237111559100200,7.81910009765625,0.025049427524209023,0.11645524203777313,-0.03155100345611572
1747237111569131000,7.829131103515625,0.019535085186362267,0.11916553974151611,-0.02857971377670765
1747237111579162000,7.839162109375,0.013047891668975353,0.12138022482395172,-0.030043119564652443
1747237111589193200,7.849193115234375,0.007696002721786499,0.1193130761384964,-0.0333787277340889
1747237111599224000,7.85922412109375,0.01492408849298954,0.1230929046869278,-0.033788856118917465
1747237111609255200,7.869255126953125,0.014990135096013546,0.1298978179693222,-0.0359654575586319
1747237111619286000,7.8792861328125,0.015665778890252113,0.135071262717247,-0.03533855080604553
1747237111629316000,7.889316162109375,0.007681088987737894,0.13635490834712982,-0.029474535956978798
1747237111639347200,7.89934716796875,0.002382996492087841,0.12697498500347137,-0.021981997415423393
1747237111649378000,7.9093779296875,-0.002025600289925933,0.11693301051855087,-0.013440974056720734
1747237111659409200,7.9194091796875,-0.007249923422932625,0.10623189806938171,0.001258876291103661
1747237111669440000,7.92943994140625,-0.007475226651877165,0.09739898890256882,0.0126968864351511
1747237111679471000,7.93947119140625,-0.013829262927174568,0.08749096840620041,0.03032168745994568
1747237111689502000,7.949501953125,-0.018200576305389404,0.07407210022211075,0.04664846137166023
1747237111699533000,7.959532958984375,-0.019026154652237892,0.06187774986028671,0.06139012426137924
1747237111709564000,7.96956396484375,-0.016870858147740364,0.05120965838432312,0.07192932069301605
1747237111719595000,7.979594970703125,-0.013791978359222412,0.04476640745997429,0.08571969717741013
1747237111729626000,7.989626220703125,-0.009317602030932903,0.04818563908338547,0.09423861652612686
1747237111739657200,7.9996572265625,-0.004559331573545933,0.05908063054084778,0.10502389073371887
1747237111749688000,8.00968798828125,-0.0015824503498151898,0.08137821406126022,0.11388236284255981
1747237111759718000,8.0197177734375,-0.0012743226252496243,0.09723014384508133,0.12488174438476562
1747237111769749200,8.029749267578126,0.0023790018167346716,0.10923460870981216,0.13222834467887878
1747237111779780000,8.039780029296875,0.005909820552915335,0.11732076853513718,0.1351785957813263
1747237111789811200,8.049811279296875,0.03837481886148453,0.12246306240558624,0.14343972504138947
1747237111799842000,8.059842041015624,0.09562665969133377,0.11977167427539825,0.15476587414741516
1747237111809873200,8.069873046875,0.11604884266853333,0.11551647633314133,0.16098596155643463
1747237111819904000,8.079904052734374,0.12294589728116989,0.0825289636850357,0.16889527440071106
1747237111829935000,8.08993505859375,0.11751038581132889,0.06125430390238762,0.18022170662879944
1747237111839966000,8.099966064453126,0.10243875533342361,0.058819375932216644,0.1899518221616745
1747237111849997000,8.1099970703125,0.08903693407773972,0.0736856684088707,0.18515866994857788
1747237111860028000,8.12002783203125,0.08856076002120972,0.07244890183210373,0.17026600241661072
1747237111870059000,8.13005908203125,0.09109848737716675,0.0602170005440712,0.15074370801448822
1747237111880090000,8.140090087890625,0.10357512533664703,0.06677290797233582,0.12839898467063904
1747237111890120000,8.150119873046876,0.12053120881319046,0.10259934514760971,0.11501792818307877
1747237111900151000,8.160151123046875,0.1654113382101059,0.14565441012382507,0.09880860149860382
1747237111910182000,8.170181884765626,0.24246643483638763,0.15014316141605377,0.07882397621870041
1747237111920213000,8.180212890625,0.32341134548187256,0.12288224697113037,0.056778326630592346
1747237111930244000,8.190244140625,0.3717639744281769,0.10203954577445984,0.03260454908013344
1747237111940275000,8.20027490234375,0.3676789402961731,0.061711300164461136,0.012411396019160748
1747237111950306300,8.210306396484375,0.3211037218570709,0.03319603577256203,-0.0021603561472147703
1747237111960337200,8.220337158203124,0.257592111825943,0.019829897210001945,-0.02153591811656952
1747237111970368300,8.2303681640625,0.18360763788223267,0.02100781351327896,-0.04427984729409218
1747237111980399000,8.240399169921876,0.0985042005777359,0.014429539442062378,-0.07148110866546631
1747237111990430200,8.25043017578125,-0.0024791366886347532,0.0002109223569277674,-0.0942162498831749
1747237112000461000,8.2604609375,-0.034760911017656326,-0.013106214813888073,-0.10758105665445328
1747237112010491100,8.2704912109375,-0.02183791995048523,0.015282549895346165,-0.1137276291847229
1747237112020522200,8.280522216796875,-0.00404640706256032,0.04499330744147301,-0.11009561270475388
1747237112030553000,8.290552978515626,0.0016186692519113421,0.05522410571575165,-0.11474628746509552
1747237112040584200,8.300584228515625,-0.0004519384237937629,0.05096251517534256,-0.12104732543230057
1747237112050615000,8.310614990234376,-0.005369198974221945,0.04220098257064819,-0.1326291561126709
1747237112060646100,8.320646240234375,-0.013627395033836365,0.03347193822264671,-0.144971564412117
1747237112070677000,8.330677001953125,-0.017796840518712997,0.028353611007332802,-0.14865311980247498
1747237112080708000,8.3407080078125,-0.011798069812357426,0.02857438661158085,-0.15571369230747223
1747237112090739000,8.350739013671875,-0.003913781605660915,0.03214675188064575,-0.15242601931095123
1747237112100770000,8.36077001953125,0.0025864620693027973,0.02864709123969078,-0.14968429505825043
1747237112110801000,8.37080078125,0.0208850409835577,0.02359587326645851,-0.14740915596485138
1747237112120832000,8.38083203125,0.032281242311000824,0.01847887597978115,-0.14280907809734344
1747237112130862800,8.39086279296875,0.05004905164241791,0.019873039796948433,-0.14559873938560486
1747237112140893000,8.400892822265625,0.057068612426519394,0.019328691065311432,-0.14954687654972076
1747237112150924000,8.410924072265624,0.06149531900882721,0.03015017881989479,-0.1477857381105423
1747237112160955000,8.420954833984375,0.056644368916749954,0.03875352069735527,-0.14141252636909485
1747237112170986200,8.430986328125,0.04844503104686737,0.04653048515319824,-0.132773756980896
1747237112181017000,8.44101708984375,0.03535958752036095,0.05023760348558426,-0.12606579065322876
1747237112191048200,8.451048095703126,0.029377063736319542,0.04484816640615463,-0.11692608892917633
1747237112201079000,8.4610791015625,0.02093803882598877,0.0358584001660347,-0.1068878322839737
1747237112211110100,8.471110107421875,0.0172684695571661,0.025896312668919563,-0.09048382937908173
1747237112221141000,8.48114111328125,0.017366738989949226,0.004900216590613127,-0.07640262693166733
1747237112231172000,8.491172119140625,0.005240035708993673,-0.02358708530664444,-0.062316372990608215
1747237112241203000,8.501202880859376,-0.004561196081340313,-0.04047978296875954,-0.046121954917907715
1747237112251234000,8.511234130859375,-0.015469769947230816,-0.04219405725598335,-0.0309858787804842
1747237112261265200,8.52126513671875,-0.029393574222922325,-0.039266444742679596,-0.019103121012449265
1747237112271296000,8.5312958984375,-0.041486721485853195,-0.03930160030722618,-0.004704207647591829
1747237112281326000,8.541326171875,-0.049065813422203064,-0.04018976539373398,0.009518403559923172
1747237112291357000,8.55135693359375,-0.04824262857437134,-0.0582667700946331,0.022397983819246292
1747237112301388000,8.561387939453125,-0.045155495405197144,-0.0859183669090271,0.03873248025774956
1747237112311418600,8.571418701171876,-0.037226997315883636,-0.11237341165542603,0.05126265436410904
1747237112321449500,8.581449462890625,-0.024827318266034126,-0.1331966668367386,0.05871817469596863
1747237112331480600,8.59148046875,-0.0028636970091611147,-0.16313885152339935,0.06463491916656494
1747237112341511400,8.601511474609374,0.018447184935212135,-0.18206967413425446,0.06833405047655106
1747237112351542500,8.61154248046875,0.038119155913591385,-0.18547213077545166,0.07191333919763565
1747237112361573400,8.621573486328124,0.05134015157818794,-0.17219839990139008,0.07542338222265244
1747237112371604500,8.6316044921875,0.054478686302900314,-0.14167644083499908,0.07340151071548462
1747237112381635600,8.641635498046876,0.05975334346294403,-0.11633220314979553,0.07622792571783066
1747237112391666700,8.651666748046875,0.06289747357368469,-0.09718247503042221,0.08314681798219681
1747237112401697500,8.661697509765625,0.06300106644630432,-0.08444324135780334,0.08725500851869583
1747237112411727600,8.6717275390625,0.06552708148956299,-0.08172681927680969,0.10025043785572052
1747237112421758700,8.6817587890625,0.07371257245540619,-0.08249807357788086,0.10013805329799652
1747237112431789600,8.69178955078125,0.08199739456176758,-0.07400951534509659,0.10299429297447205
1747237112441820700,8.701820556640625,0.08473992347717285,-0.0673670545220375,0.10184034705162048
1747237112451851500,8.7118515625,0.08516043424606323,-0.048229578882455826,0.10184647142887115
1747237112461882600,8.721882568359375,0.11213026940822601,-0.05814053490757942,0.08417000621557236
1747237112471913500,8.73191357421875,0.1474435180425644,-0.09127052128314972,0.04025873914361
1747237112481944600,8.741944580078124,0.18495653569698334,-0.10123846679925919,0.011173292063176632
1747237112491975400,8.751975341796875,0.20778729021549225,-0.057080596685409546,0.02233300171792507
1747237112502006500,8.762006591796874,0.23324523866176605,0.008347944356501102,0.050211772322654724
1747237112512037600,8.77203759765625,0.2773919403553009,0.07174928486347198,0.07579116523265839
1747237112522068500,8.782068359375,0.308770090341568,0.1535741090774536,0.10342518985271454
1747237112532099600,8.792099609375,0.3191409707069397,0.2789381444454193,0.1502174586057663
1747237112542130400,8.80213037109375,0.33614659309387207,0.3387461006641388,0.1540399044752121
1747237112552160500,8.812160400390624,0.3575592041015625,0.28551697731018066,0.11175369471311569
1747237112562191400,8.82219140625,0.33435240387916565,0.16129913926124573,0.0451352521777153
1747237112572222500,8.832222412109376,0.24713042378425598,0.013703561387956142,-0.01607404090464115
1747237112582253600,8.842253662109375,0.11985503137111664,-0.12021002918481827,-0.05511704832315445
1747237112592284400,8.852284423828126,-0.007785751484334469,-0.20572279393672943,-0.032525718212127686
1747237112602315800,8.862315673828125,-0.11742276698350906,-0.20471133291721344,0.042459044605493546
1747237112612346600,8.8723466796875,-0.19017712771892548,-0.13562732934951782,0.12683357298374176
1747237112622377700,8.882377685546874,-0.2322196513414383,-0.05745210871100426,0.19671200215816498
1747237112632408600,8.89240869140625,-0.25811225175857544,-0.0006159891490824521,0.23022042214870453
1747237112642439700,8.902439697265624,-0.27395057678222656,-0.005298625212162733,0.20721496641635895
1747237112652470500,8.912470458984375,-0.27630162239074707,-0.04007577896118164,0.1399959921836853
1747237112662501600,8.922501708984376,-0.2824404835700989,-0.04812385141849518,0.05925533547997475
1747237112672532500,8.932532470703125,-0.28473666310310364,-0.0006391586503013968,-0.0017752632265910506
1747237112682563600,8.9425634765625,-0.26593074202537537,0.05275056138634682,-0.02514583244919777
1747237112692594400,8.952594482421874,-0.2342527061700821,0.08173028379678726,-0.017596837133169174
1747237112702624500,8.96262451171875,-0.2026095688343048,0.08959352970123291,0.007811317685991526
1747237112712655600,8.972655517578126,-0.1811535358428955,0.09181807190179825,0.013895575888454914
1747237112722686500,8.9826865234375,-0.16942498087882996,0.09811777621507645,0.0009097357979044318
1747237112732717600,8.992717529296876,-0.16713891923427582,0.10849132388830185,-0.03147989511489868
1747237112742748400,9.00274853515625,-0.16879141330718994,0.12515579164028168,-0.05907184258103371
1747237112752779500,9.012779541015625,-0.16896745562553406,0.14603683352470398,-0.07938723266124725
1747237112762810400,9.022810302734374,-0.16373273730278015,0.17462825775146484,-0.07744951546192169
1747237112772841500,9.032841552734375,-0.14534680545330048,0.19810882210731506,-0.06328949332237244
1747237112782872600,9.04287255859375,-0.1193692684173584,0.20828396081924438,-0.04291258007287979
1747237112792903700,9.052903564453125,-0.09865546971559525,0.19862255454063416,-0.02580789476633072
1747237112802934500,9.0629345703125,-0.09083402901887894,0.1822502315044403,-0.012328571639955044
1747237112812965600,9.072965576171875,-0.07698479294776917,0.16179901361465454,-0.013374927453696728
1747237112822996700,9.082996826171875,-0.0657595694065094,0.1314680129289627,-0.018185129389166832
1747237112833027600,9.093027587890624,-0.05227891728281975,0.10540924966335297,-0.026209766045212746
1747237112843058700,9.10305859375,-0.03945020213723183,0.07935820519924164,-0.03278910368680954
1747237112853088500,9.113088623046876,-0.035527367144823074,0.05742014944553375,-0.03581712022423744
1747237112863119600,9.12311962890625,-0.03506344556808472,0.039208922535181046,-0.03068121336400509
1747237112873150500,9.133150390625,-0.04475495591759682,0.022456573322415352,-0.02244778536260128
1747237112883181600,9.143181640625,-0.05291168391704559,0.0019438412273302674,-0.01510012336075306
1747237112893212700,9.153212646484375,-0.06027212738990784,-0.01919606514275074,-0.0016378440195694566
1747237112903243500,9.163243408203124,-0.07120147347450256,-0.03570473566651344,0.011423363350331783
1747237112913274600,9.173274658203125,-0.06858918070793152,-0.053878944367170334,0.026222549378871918
1747237112923305500,9.183305419921876,-0.05806676670908928,-0.0640982910990715,0.039088014513254166
1747237112933336600,9.193336669921875,-0.046362437307834625,-0.06610045582056046,0.04614432528614998
1747237112943367400,9.203367431640626,-0.03250547870993614,-0.05558523163199425,0.045154962688684464
1747237112953398500,9.2133984375,-0.02002750337123871,-0.028838306665420532,0.04006512835621834
1747237112963429400,9.223429443359375,-0.011099522933363914,-0.00436039362102747,0.03256753087043762
1747237112973460700,9.233460693359374,-0.00016005597717594355,0.010489125736057758,0.026370886713266373
1747237112983491600,9.24349169921875,0.005373460240662098,0.017111076042056084,0.021999841555953026
1747237112993522700,9.253522705078124,0.016056997701525688,0.01960619166493416,0.00905741099268198
1747237113003553500,9.263553466796875,0.021506091579794884,0.015481221489608288,0.009134909138083458
1747237113013583600,9.27358349609375,0.02436659298837185,0.01341860368847847,0.009520534425973892
1747237113023614700,9.28361474609375,0.019812587648630142,0.020146813243627548,0.011785020120441914
1747237113033645600,9.2936455078125,0.008359395898878574,0.021798772737383842,0.011317103169858456
1747237113043676700,9.3036767578125,-0.0073167686350643635,0.02418816089630127,0.008930111303925514
1747237113053707500,9.31370751953125,-0.02383689023554325,0.021649634465575218,0.005635248962789774
1747237113063738600,9.323738525390626,-0.028497422114014626,0.021702898666262627,-0.0001853560097515583
1747237113073769500,9.33376953125,-0.027779433876276016,0.018610436469316483,-0.0123056685552001
1747237113083800600,9.343800537109376,-0.017173660919070244,0.016436763107776642,-0.020145215094089508
1747237113093831400,9.35383154296875,-0.008100003935396671,0.011118697002530098,-0.03385916352272034
1747237113103862500,9.363862548828125,-0.004540689755231142,0.015857793390750885,-0.04506787657737732
1747237113113893600,9.3738935546875,-0.0054847802966833115,0.015025288797914982,-0.05064213648438454
1747237113123924500,9.383924560546875,-0.007865379564464092,0.009424660354852676,-0.05543955788016319
1747237113133955600,9.39395556640625,-0.0073167686350643635,0.004341751337051392,-0.06627489626407623
1747237113143986400,9.403986328125,-0.003970507066696882,-0.0021579593885689974,-0.07472430169582367
1747237113154017500,9.414017578125,0.0008812400046736002,-0.008643022738397121,-0.08310767263174057
1747237113164048600,9.424048583984375,0.007744472473859787,-0.013591974973678589,-0.0861910805106163
1747237113174078500,9.434078369140625,0.017256218940019608,-0.029746709391474724,-0.08784889429807663
1747237113184109600,9.444109619140624,0.030722493305802345,-0.04861360788345337,-0.09015306085348129
1747237113194140700,9.454140625,0.04932893440127373,-0.08362219482660294,-0.10145898163318634
1747237113204171800,9.464171875,0.06824909150600433,-0.1133023202419281,-0.10657598078250885
1747237113214202600,9.47420263671875,0.09614197909832001,-0.13344168663024902,-0.11172839254140854
1747237113224233700,9.484233642578126,0.12311980128288269,-0.1504155993461609,-0.11155609041452408
1747237113234264600,9.4942646484375,0.14665308594703674,-0.14599741995334625,-0.11452684551477432
1747237113244295700,9.504295654296875,0.1588282585144043,-0.14334730803966522,-0.11382749676704407
1747237113254326500,9.514326416015624,0.15992628037929535,-0.13682523369789124,-0.114056795835495
1747237113264357600,9.524357666015625,0.141010120511055,-0.12465351819992065,-0.10462388396263123
1747237113274388500,9.534388427734376,0.10497169196605682,-0.1080407127737999,-0.07907351106405258
1747237113284419600,9.544419677734375,0.06865762174129486,-0.08564832806587219,-0.05407814681529999
1747237113294450400,9.554450439453126,0.041299235075712204,-0.0506189689040184,-0.032932914793491364
1747237113304481500,9.5644814453125,0.017134778201580048,-0.013486780226230621,-0.022967100143432617
1747237113314512100,9.57451220703125,0.005633917171508074,0.025371136143803596,-0.014903581701219082
1747237113324543000,9.58454296875,-0.00826991442590952,0.04983999580144882,-0.012419119477272034
1747237113334574000,9.594573974609375,-0.01327053178101778,0.07721143215894699,-0.006857639644294977
1747237113344604000,9.60460400390625,-0.013948572799563408,0.09289638698101044,-0.0023132218047976494
1747237113354635000,9.614635009765625,-0.015665512531995773,0.0983196422457695,0.0004719121498055756
1747237113364666000,9.624666015625,-0.015157381072640419,0.09001670777797699,0.013071593828499317
1747237113374697000,9.634697021484374,-0.018580075353384018,0.07567984610795975,0.019355054944753647
1747237113384728000,9.64472802734375,-0.028728051111102104,0.0532539002597332,0.030489465221762657
1747237113394759000,9.654759033203124,-0.04171016067266464,0.02942872792482376,0.036140959709882736
1747237113404790000,9.6647900390625,-0.05826650187373161,0.014124874025583267,0.03274569660425186
1747237113414820900,9.67482080078125,-0.07036258280277252,0.01882508583366871,0.026683276519179344
1747237113424852000,9.68485205078125,-0.07925700396299362,0.027709923684597015,0.019599001854658127
1747237113434882800,9.6948828125,-0.0825209766626358,0.04072772338986397,0.016077503561973572
1747237113444914000,9.704913818359374,-0.07979229837656021,0.050024550408124924,0.0166143961250782
1747237113454944800,9.71494482421875,-0.07242759317159653,0.054602790623903275,0.017434651032090187
1747237113464976000,9.724975830078124,-0.06863099336624146,0.06750580668449402,0.021290907636284828
1747237113475006700,9.7350068359375,-0.061823152005672455,0.07797176390886307,0.021615546196699142
1747237113485038000,9.7450380859375,-0.052436843514442444,0.08017899096012115,0.022281603887677193
1747237113495069000,9.75506884765625,-0.04802718013525009,0.0823872834444046,0.02797331102192402
1747237113505100000,9.76510009765625,-0.046251650899648666,0.08562968671321869,0.02743775025010109
1747237113515131000,9.775130859375,-0.04488225281238556,0.09264285117387772,0.03002660907804966
1747237113525161000,9.785160888671875,-0.04123638570308685,0.09582798928022385,0.027702201157808304
1747237113535192000,9.795192138671876,-0.03918388858437538,0.08992189913988113,0.024477645754814148
1747237113545223000,9.805222900390625,-0.039017174392938614,0.07654616981744766,0.027285417541861534
1747237113555254000,9.81525390625,-0.03923262283205986,0.07216261327266693,0.029398635029792786
1747237113565284900,9.825284912109375,-0.03839106485247612,0.07649051398038864,0.030305441468954086
1747237113575316000,9.83531591796875,-0.036183036863803864,0.07625748962163925,0.035405129194259644
1747237113585346800,9.845346923828124,-0.0344352051615715,0.07437542825937271,0.036440830677747726
1747237113595378000,9.8553779296875,-0.033422671258449554,0.0795225203037262,0.04306731000542641
1747237113605409000,9.865408935546874,-0.02600283920764923,0.07968950271606445,0.04478158429265022
1747237113615440000,9.87543994140625,-0.024698954075574875,0.08119925111532211,0.04375200718641281
1747237113625471000,9.885470947265626,-0.017963554710149765,0.07097990065813065,0.03891384229063988
1747237113635501800,9.895501708984375,-0.011216968297958374,0.060862816870212555,0.032818932086229324
1747237113645533000,9.905532958984375,0.0013510215794667602,0.039445143193006516,0.027884362265467644
1747237113655563800,9.915563720703124,0.010659036226570606,0.020195815712213516,0.028922460973262787
1747237113665595000,9.925594970703125,0.01577070727944374,0.0017856494523584843,0.022051772102713585
1747237113675626000,9.9356259765625,0.023547936230897903,-0.00532605592161417,0.01595047116279602
1747237113685657000,9.945656982421875,0.02895228937268257,0.003376089269295335,0.00381417921744287
1747237113695688000,9.95568798828125,0.034088995307683945,0.011698467656970024,-0.006261890754103661
1747237113705719000,9.965718994140625,0.045108623802661896,0.026320820674300194,-0.015074290335178375
1747237113715749000,9.9757490234375,0.0520634688436985,0.04059882462024689,-0.02526727318763733
1747237113725780000,9.985780029296874,0.057317085564136505,0.05028713867068291,-0.02913311868906021
1747237113735811000,9.99581103515625,0.06130224093794823,0.048825331032276154,-0.03087056428194046
1747237113745842000,10.005842041015624,0.06716598570346832,0.04363855719566345,-0.030979754403233528
1747237113755873000,10.015873046875,0.06892260909080505,0.038411837071180344,-0.023869380354881287
1747237113765904000,10.02590380859375,0.0766279324889183,0.028246818110346794,-0.014706774614751339
1747237113775935000,10.03593505859375,0.07121159881353378,0.023071764037013054,-0.0013174657942727208
1747237113785965800,10.0459658203125,0.07119135558605194,-0.002557699801400304,0.007909055799245834
1747237113795997000,10.055996826171874,0.07045578956604004,-0.02930888719856739,0.01630573719739914
1747237113806027800,10.06602783203125,0.06781020760536194,-0.04695446044206619,0.025780729949474335
1747237113816059000,10.076058837890624,0.06408950686454773,-0.06226097792387009,0.03632524982094765
1747237113826090000,10.086090087890625,0.056000951677560806,-0.06986430287361145,0.04283694550395012
1747237113836120800,10.096120849609376,0.05989369377493858,-0.0822109803557396,0.04561914876103401
1747237113846152000,10.10615185546875,0.06266871094703674,-0.10701540112495422,0.0459725521504879
1747237113856183000,10.11618310546875,0.06345807015895844,-0.12192030996084213,0.04013463482260704
1747237113866214100,10.126214111328125,0.06041007861495018,-0.12204814702272415,0.03224315866827965
1747237113876245000,10.136244873046875,0.060930993407964706,-0.1077570915222168,0.024453943595290184
1747237113886276000,10.146276123046874,0.05480119585990906,-0.08236358314752579,0.016746222972869873
1747237113896307000,10.156306884765625,0.04476667195558548,-0.05224562808871269,0.010093647055327892
1747237113906338000,10.166338134765626,0.04074636474251747,-0.028370387852191925,0.008466455154120922
1747237113916368100,10.1763681640625,0.03449193015694618,-0.011576761491596699,0.0037699707318097353
1747237113926399000,10.18639892578125,0.026747990399599075,0.004227768164128065,0.0002854908525478095
1747237113936430000,10.19643017578125,0.02551761083304882,0.013548832386732101,-0.005979062989354134
1747237113946461000,10.2064609375,0.024463530629873276,0.03356275334954262,-0.011531753465533257
1747237113956492000,10.216491943359374,0.022053103893995285,0.05884600430727005,-0.016497483476996422
1747237113966523000,10.22652294921875,0.019648801535367966,0.08109378814697266,-0.02028423175215721
1747237113976554000,10.236553955078126,0.0177579578012228,0.0936703011393547,-0.021771341562271118
1747237113986584800,10.246584716796875,0.01392913144081831,0.105165034532547,-0.02955256588757038
1747237113996616000,10.256615966796875,0.008053931407630444,0.11523710936307907,-0.03611379489302635
1747237114006646800,10.266646728515624,-0.0028181569650769234,0.13117080926895142,-0.03937830030918121
1747237114016678000,10.276677978515625,-0.008727711625397205,0.14411430060863495,-0.047143276780843735
1747237114026708700,10.286708740234374,-0.01254934724420309,0.14700356125831604,-0.05415724590420723
1747237114036739800,10.29673974609375,-0.013540043495595455,0.1452333629131317,-0.05924814194440842
1747237114046771000,10.30677099609375,-0.013068930245935917,0.13582095503807068,-0.06150863319635391
1747237114056802000,10.316802001953125,-0.014282266609370708,0.132623553276062,-0.06103086471557617
1747237114066833000,10.3268330078125,-0.016751816496253014,0.13467925786972046,-0.059428174048662186
1747237114076864000,10.336864013671875,-0.017915351316332817,0.1305265873670578,-0.06107107549905777
1747237114086895000,10.34689501953125,-0.023181751370429993,0.12287159264087677,-0.060750167816877365
1747237114096926000,10.356926025390624,-0.025138908997178078,0.11036645621061325,-0.057015880942344666
1747237114106957000,10.36695703125,-0.024596955627202988,0.10659435391426086,-0.050523895770311356
1747237114116988000,10.37698779296875,-0.020781977102160454,0.09668552875518799,-0.040162865072488785
1747237114127019000,10.38701904296875,-0.01696593314409256,0.09809514135122299,-0.030230872333049774
1747237114137048800,10.397048828125,-0.012491024099290371,0.10144247114658356,-0.028240425512194633
1747237114147080000,10.407079833984374,-0.012494753114879131,0.11236435920000076,-0.013630857691168785
1747237114157111000,10.417111083984375,-0.015127287246286869,0.1154288575053215,-0.0023302659392356873
1747237114167142000,10.427141845703124,-0.019639480859041214,0.12249156087636948,0.022112226113677025
1747237114177173000,10.437173095703125,-0.025305090472102165,0.11003568768501282,0.02502519264817238
1747237114187203800,10.447203857421876,-0.031492412090301514,0.09175095707178116,0.0296095572412014
1747237114197235000,10.45723486328125,-0.02738448604941368,0.06496009230613708,0.032947298139333725
1747237114207265800,10.467265869140626,-0.024391358718276024,0.04126860946416855,0.03455451503396034
1747237114217297000,10.477296875,-0.019108979031443596,0.013805827125906944,0.03519580513238907
1747237114227327700,10.48732763671875,-0.014508634805679321,-0.011600730009377003,0.03494653105735779
1747237114237359000,10.497359130859374,-0.016089754179120064,-0.02261689491569996,0.029105421155691147
1747237114247390000,10.507389892578125,-0.021447768434882164,-0.02551255002617836,0.037342045456171036
1747237114257421000,10.517421142578126,-0.02219611592590809,-0.02147306688129902,0.03737560287117958
1747237114267452000,10.527451904296875,-0.01709456369280815,-0.024838238954544067,0.04182121530175209
1747237114277483000,10.53748291015625,-0.02213433012366295,-0.029154157266020775,0.04283827915787697
1747237114287513900,10.547513916015625,-0.023396136239171028,-0.03567144647240639,0.04896674305200577
1747237114297545000,10.557544921875,-0.015925703570246696,-0.029455360025167465,0.05433034896850586
1747237114307576000,10.567576171875,-0.006286391522735357,-0.042448658496141434,0.018024008721113205
1747237114317607200,10.577607177734375,0.0057223341427743435,-0.06730899959802628,0.019720973446965218
1747237114327638300,10.58763818359375,0.014451643452048302,-0.07135221362113953,0.014550712890923023
1747237114337669000,10.597669189453125,0.020360132679343224,-0.06562987715005875,0.003465837799012661
1747237114347700200,10.6077001953125,0.028607675805687904,-0.05432715266942978,-0.0023100259713828564
1747237114357731000,10.61773095703125,0.03226153180003166,-0.046901728957891464,-0.007132211700081825
1747237114367761200,10.62776123046875,0.029893450438976288,-0.053709033876657486,-0.014830078929662704
1747237114377792000,10.6377919921875,0.029268672689795494,-0.052617404609918594,-0.02521054819226265
1747237114387823000,10.647822998046875,0.028439629822969437,-0.047747813165187836,-0.029570940881967545
1747237114397854200,10.657854248046876,0.025916552171111107,-0.04354534670710564,-0.039566852152347565
1747237114407885000,10.667885009765625,0.030882282182574272,-0.0424148365855217,-0.04789828509092331
1747237114417916400,10.67791650390625,0.03561631590127945,-0.04833291098475456,-0.04874889552593231
1747237114427947300,10.687947265625,0.04050295054912567,-0.04737017676234245,-0.05415085330605507
1747237114437978400,10.697978271484375,0.04219778627157211,-0.03976685553789139,-0.05950354039669037
1747237114448009200,10.70800927734375,0.04153572395443916,-0.035355594009160995,-0.05933735892176628
1747237114458040300,10.718040283203125,0.03791702166199684,-0.026192720979452133,-0.056648898869752884
1747237114468071200,10.7280712890625,0.03271932899951935,-0.01420396938920021,-0.048721734434366226
1747237114478102300,10.738102294921875,0.025110146030783653,-0.00646615494042635,-0.04206462949514389
1747237114488133000,10.748133056640626,0.01690787635743618,0.008554605767130852,-0.04274000599980354
1747237114498164200,10.758164306640625,0.014912370592355728,0.008984440006315708,-0.04019828513264656
1747237114508195000,10.768195068359375,0.014683338813483715,-0.0009515474666841328,-0.039865657687187195
1747237114518226200,10.77822607421875,0.01495205145329237,-0.007248325273394585,-0.036915939301252365
1747237114528257000,10.788257080078125,0.01667112112045288,-0.023937024176120758,-0.037034984678030014
1747237114538288000,10.7982880859375,0.016093216836452484,-0.0357031375169754,-0.02924976497888565
1747237114548319000,10.808319091796875,0.01170699018985033,-0.035942818969488144,-0.027402862906455994
1747237114558350000,10.81835009765625,0.010577277280390263,-0.04266037791967392,-0.016331302002072334
1747237114568381200,10.828381103515625,0.00788322277367115,-0.02173006348311901,-0.018386730924248695
1747237114578412300,10.838412353515626,0.003162770066410303,-0.03142743185162544,-0.012748286128044128
1747237114588443400,10.848443359375,0.0018021611031144857,-0.027101924642920494,-0.017481522634625435
1747237114598474200,10.85847412109375,0.00006444849714171141,-0.016560601070523262,-0.018502578139305115
1747237114608505300,10.86850537109375,-0.0044394894503057,-0.008853678591549397,-0.009061139076948166
1747237114618536200,10.8785361328125,-0.004803543444722891,-0.0006234460161067545,-0.01182337012141943
1747237114628567300,10.8885673828125,0.000969923275988549,0.0000476705827168189,-0.006732471287250519
1747237114638597400,10.898597412109375,0.00039867521263659,0.007985754869878292,-0.004941229242831469
1747237114648628200,10.908628173828125,-0.0005270395777188241,0.020805945619940758,0.0023576964158564806
1747237114658659300,10.918659423828124,-0.004820055328309536,0.019592342898249626,0.006472013890743256
1747237114668690200,10.928690185546875,-0.005735650192946196,0.02532479725778103,0.01432514376938343
1747237114678721300,10.93872119140625,-0.008972455747425556,0.026643594726920128,0.022304240614175797
1747237114688752000,10.948752197265625,-0.013070794753730297,0.016457803547382355,0.020234964787960052
1747237114698783200,10.958783203125,-0.012521384283900261,0.01193921733647585,0.028842566534876823
1747237114708814000,10.96881396484375,-0.011561847291886806,0.009444900788366795,0.02485261857509613
1747237114718845200,10.97884521484375,-0.00993385724723339,0.006601976230740547,0.027275029569864273
1747237114728876000,10.9888759765625,-0.008964733220636845,0.004177168011665344,0.02027065120637417
1747237114738907100,10.9989072265625,-0.005843508057296276,0.00977460015565157,0.021988123655319214
1747237114748938000,11.00893798828125,-0.006731139495968819,0.022967632859945297,0.021212611347436905
1747237114758969000,11.018968994140625,-0.0031726236920803785,0.031010912731289864,0.03863607719540596
1747237114769000200,11.029000244140626,-0.00028522455249913037,0.02311517298221588,0.026398584246635437
1747237114779031300,11.03903125,-0.0016873788554221392,0.013976269401609898,0.024653680622577667
1747237114789062100,11.049062255859376,-0.003198722843080759,0.013203419744968414,0.0255756676197052
1747237114799093200,11.05909326171875,-0.004139351192861795,0.006885070353746414,0.03303651139140129
1747237114809124400,11.069124267578125,-0.006886934395879507,0.01020017359405756,0.02803722769021988
1747237114819155200,11.0791552734375,-0.007969509810209274,0.015671903267502785,0.030401315540075302
1747237114829186300,11.089186279296875,-0.0033515882678329945,0.01888873614370823,0.036310337483882904
1747237114839217200,11.099217041015624,-0.0024439829867333174,0.019523900002241135,0.034290861338377
1747237114849248300,11.109248291015625,0.0011757856700569391,0.022824356332421303,0.028725920245051384
1747237114859279000,11.119279052734376,0.0035057852510362864,0.013520868495106697,0.020126573741436005
1747237114869310200,11.129310302734375,0.008222776465117931,0.022380406036973,0.020110327750444412
1747237114879341000,11.139341064453125,0.014973889105021954,0.030702251940965652,0.017476461827754974
1747237114889372200,11.1493720703125,0.010690194554626942,0.03177444264292717,0.020533770322799683
1747237114899403000,11.159403076171875,0.007668039761483669,0.04138845205307007,0.024512000381946564
1747237114909434000,11.16943408203125,-0.0023007048293948174,0.04480608552694321,0.024025708436965942
1747237114919465200,11.17946533203125,-0.0041518681682646275,0.04349101707339287,0.019883958622813225
1747237114929496300,11.189496337890626,-0.0027515781112015247,0.03963795676827431,0.021645640954375267
1747237114939527200,11.199527099609375,0.006719687953591347,0.02178625576198101,0.015719307586550713
1747237114949557000,11.209556884765625,0.010943727567791939,0.011375959031283855,0.013273460790514946
1747237114959588400,11.21958837890625,0.010116283781826496,0.013768542557954788,0.009647566825151443
1747237114969619200,11.229619140625,0.01028512790799141,0.023184947669506073,0.006295979022979736
1747237114979650300,11.239650390625,0.006013417616486549,0.04322470352053642,0.008787632919847965
1747237114989681200,11.24968115234375,-0.004991030320525169,0.059416987001895905,0.007138869725167751
1747237114999712300,11.259712158203126,-0.00839428324252367,0.06181995943188667,0.013656689785420895
1747237115009743000,11.2697431640625,-0.004967061802744865,0.04725592955946922,0.009473396465182304
1747237115019774200,11.279774169921875,0.0018876485992223024,0.030650321394205093,0.005047223065048456
1747237115029805000,11.28980517578125,0.012220713309943676,0.009081912226974964,0.0013683321885764599
1747237115039836200,11.299836181640625,0.022548984736204147,-0.0018216022290289402,-0.0011416971683502197
1747237115049867300,11.3098671875,0.02604997716844082,-0.0002942793071269989,-0.0020849888678640127
1747237115059898000,11.319898193359375,0.035463184118270874,-0.010430802591145039,-0.003686613868921995
1747237115069929200,11.32992919921875,0.04325160011649132,-0.016282035037875175,0.00040799626731313765
1747237115079960000,11.3399599609375,0.053888533264398575,-0.03951891511678696,0.002037584548816085
1747237115089991200,11.3499912109375,0.05850378796458244,-0.04442072659730911,0.001213336130604148
1747237115100022000,11.36002197265625,0.05398041009902954,-0.05182458087801933,0.004403270315378904
1747237115110053400,11.370053466796875,0.049610428512096405,-0.05650002881884575,-0.00017097493400797248
1747237115120084200,11.380084228515624,0.05499214679002762,-0.0620439313352108,0.0026101642288267612
1747237115130115300,11.390115234375,0.06005747616291046,-0.07239004224538803,0.009052883833646774
1747237115140146200,11.400146240234376,0.05968703329563141,-0.08019071072340012,-0.004869323689490557
1747237115150177300,11.41017724609375,0.06250172853469849,-0.0916212648153305,-0.013533385470509529
1747237115160208100,11.4202080078125,0.06394835561513901,-0.10075244307518005,-0.008784436620771885
1747237115170239200,11.4302392578125,0.0690632238984108,-0.10060330480337143,-0.01309023518115282
1747237115180270000,11.44027001953125,0.0602705292403698,-0.08125251531600952,0.005648564547300339
1747237115190301200,11.45030126953125,0.04303987696766853,-0.03852155804634094,0.01980219967663288
1747237115200332300,11.460332275390625,0.016565127298235893,-0.017714016139507294,0.011937619186937809
1747237115210363100,11.470363037109376,-0.006098372396081686,-0.003724164329469204,0.004346278961747885
1747237115220394200,11.480394287109375,-0.023018233478069305,0.0059782639145851135,-0.0017390442080795765
1747237115230425000,11.490425048828126,-0.03304556757211685,0.018259165808558464,0.002674346324056387
1747237115240456200,11.500456298828125,-0.03891730681061745,0.028711538761854172,0.0030629015527665615
1747237115250487000,11.510487060546875,-0.046418629586696625,0.03827548399567604,0.00023435817274730653
1747237115260518100,11.52051806640625,-0.04462872073054314,0.04779708385467529,0.002496447181329131
1747237115270549200,11.53054931640625,-0.041140779852867126,0.05940926447510719,0.003923634998500347
1747237115280580400,11.540580322265624,-0.03678491339087486,0.07490140199661255,-0.0009278453071601689
1747237115290611200,11.550611083984375,-0.026569558307528496,0.06779156625270844,0.004198739770799875
1747237115300642300,11.560642333984376,-0.017907360568642616,0.0687662810087204,-0.0006476807757280767
1747237115310672600,11.570672607421875,-0.010981544852256775,0.047211986035108566,-0.0009440905996598303
1747237115320703700,11.580703857421875,-0.0104726143181324,0.038711708039045334,0.0051683965139091015
1747237115330734800,11.59073486328125,-0.009724798612296581,0.03410204499959946,0.009216135367751122
1747237115340765700,11.600765625,-0.01471502985805273,0.02021019719541073,0.0057710702531039715
1747237115350796800,11.610796875,-0.0144108971580863,0.00005166532355360687,-0.000009321063771494664
1747237115360827600,11.62082763671875,-0.020710071548819542,-0.0099021652713418,0.001859685406088829
1747237115370858800,11.630858642578126,-0.02094309777021408,-0.011053716763854027,0.0008892294717952609
1747237115380889600,11.6408896484375,-0.021044565364718437,-0.012109393253922462,0.0010002832859754562
1747237115390920700,11.650920654296876,-0.0200424175709486,-0.012358132749795914,0.002394980750977993
1747237115400951600,11.66095166015625,-0.011177819222211838,-0.008504538796842098,0.0021142836194485426
1747237115410982700,11.670982666015625,-0.009826797991991043,-0.001175252953544259,0.002359560690820217
1747237115421013800,11.681013671875,-0.00950908288359642,-0.0013696637470275164,0.0056986319832503796
1747237115431044900,11.691044921875,-0.008206264115869999,-0.0005054679932072759,0.0007478156476281583
1747237115441075700,11.70107568359375,-0.005586512852460146,-0.009969543665647507,0.0018881811993196607
1747237115451106800,11.71110693359375,-0.0016863135388121009,-0.010092048905789852,-0.001588575541973114
1747237115461137700,11.7211376953125,0.0029888655990362167,-0.013539244420826435,-0.0067697553895413876
1747237115471168800,11.731168701171875,0.01095677725970745,-0.025141306221485138,-0.004265584982931614
1747237115481199600,11.74119970703125,0.014163489453494549,-0.029049495235085487,-0.004750546533614397
1747237115491230700,11.751230712890624,0.01890578120946884,-0.026067020371556282,-0.001157143502496183
1747237115501261800,11.76126171875,0.016527578234672546,-0.022771092131733894,-0.0015539544401690364
1747237115511292700,11.771292724609374,0.012259329669177532,-0.015738483518362045,0.002423742786049843
1747237115521323800,11.78132373046875,0.00746244378387928,-0.008890430442988873,0.0018967032665386796
1747237115531354600,11.791354736328126,0.001529453438706696,0.0024658208712935448,0.0005046690348535776
1747237115541385700,11.8013857421875,0.0017659420846030116,0.004064782522618771,-0.0025718146935105324
1747237115551416600,11.81141650390625,0.0011233213590458035,0.00827018078416586,-0.0015486282063648105
1747237115561447700,11.82144775390625,0.0030775489285588264,0.003334810258820653,-0.004730040207505226
1747237115571478800,11.831478759765625,0.008385495282709599,-0.010538128204643726,-0.004904743749648333
1747237115581510000,11.841510009765624,0.010665693320333958,-0.013637248426675797,-0.008669122122228146
1747237115591540700,11.851540771484375,0.015106781385838985,-0.01690494827926159,-0.009779393672943115
1747237115601571800,11.86157177734375,0.011574364267289639,-0.004643221385776997,-0.010152769275009632
1747237115611602700,11.871602783203125,0.005138036794960499,0.005313805304467678,-0.0062491074204444885
1747237115621633800,11.8816337890625,-0.002170742489397526,0.011974104680120945,-0.007221161387860775
1747237115631664600,11.89166455078125,-0.00635004136711359,0.018569422885775566,-0.004054130055010319
1747237115641695700,11.90169580078125,-0.006645385641604662,0.017950238659977913,-0.0026903252582997084
1747237115651726800,11.911726806640624,-0.006415288895368576,0.016875386238098145,-0.0044197821989655495
1747237115661757700,11.9217578125,-0.001228516222909093,0.019535884261131287,-0.006080795545130968
1747237115671788800,11.931788818359376,0.0032570459879934788,0.021016867831349373,-0.009604157879948616
1747237115681819600,11.941819580078125,0.009777795523405075,0.028686240315437317,-0.010240919888019562
1747237115691850800,11.951850830078126,0.01191285252571106,0.041976213455200195,-0.013490508310496807
1747237115701881600,11.961881591796875,0.008049137890338898,0.05050285533070564,-0.013773336075246334
1747237115711912700,11.97191259765625,0.002835467690601945,0.05402382090687752,-0.010145844891667366
1747237115721943600,11.981943603515624,-0.00404534162953496,0.05156252533197403,-0.005786249879747629
1747237115731975000,11.991974853515625,-0.010054497979581356,0.048770733177661896,0.0010716560063883662
1747237115742005800,12.002005859375,-0.005825931206345558,0.04164544865489006,0.0020751350093632936
1747237115752036900,12.012036865234375,-0.00589490681886673,0.03243623673915863,0.005352687556296587
1747237115762067700,12.022067626953126,-0.007533017545938492,0.028302744030952454,0.0049585397355258465
1747237115772098800,12.032098876953125,-0.009316536597907543,0.02340998500585556,0.007919441908597946
1747237115782129700,12.042129638671875,-0.013578392565250397,0.021756427362561226,0.007102117873728275
1747237115792160800,12.052160888671875,-0.016347547993063927,0.027941886335611343,0.007435279432684183
1747237115802191600,12.062191650390625,-0.018308699131011963,0.02942926064133644,0.0049164616502821445
1747237115812222700,12.07222265625,-0.024036893621087074,0.03407914191484451,0.003352653468027711
1747237115822252800,12.082252685546875,-0.018563298508524895,0.026032665744423866,0.005988117773085833
1747237115832283600,12.09228369140625,-0.014394652098417282,0.018704712390899658,0.005319131538271904
1747237115842314800,12.102314697265625,-0.0073567163199186325,0.009800166822969913,0.005027248989790678
1747237115852345600,12.112345703125,-0.006231796927750111,0.002284459536895156,0.002159557305276394
1747237115862376700,12.122376708984374,0.0010932276491075754,-0.0006354302167892456,0.0020274645648896694
1747237115872407600,12.132407470703125,0.0028642297256737947,0.0023875238839536905,-0.0025331987999379635
1747237115882438700,12.142438720703124,0.008105597458779812,0.00603419030085206,-0.009621734730899334
1747237115892469800,12.1524697265625,0.014978150837123394,0.0040852888487279415,-0.015536615625023842
1747237115902500600,12.16250048828125,0.02419854700565338,-0.003463707398623228,-0.02720392309129238
1747237115912531700,12.17253173828125,0.03671859949827194,-0.01296293642371893,-0.03572364151477814
1747237115922562800,12.182562744140625,0.048298291862010956,-0.01961151883006096,-0.04188486561179161
1747237115932594000,12.192593994140625,0.05909927189350128,-0.023937290534377098,-0.04873717948794365
1747237115942624800,12.202624755859375,0.06815721839666367,-0.02215350605547428,-0.05217398703098297
1747237115952656000,12.21265576171875,0.07169043272733688,-0.014675881713628769,-0.0539947934448719
1747237115962686700,12.222686767578125,0.06709088385105133,-0.0031308121979236603,-0.05133083090186119
1747237115972717800,12.2327177734375,0.06544078886508942,-0.005744970869272947,-0.04779974743723869
1747237115982748700,12.242748779296875,0.06336965411901474,-0.0026908579748123884,-0.05100805684924126
1747237115992779800,12.25277978515625,0.0599789135158062,-0.011108044534921646,-0.038299717009067535
