time,seconds_elapsed,z,y,x
1749920261743189000,0.09818896484375,12.330000877380371,2.322000026702881,-0.3439500033855438
1749920261753202400,0.108202392578125,11.166000366210938,4.498050212860107,-0.4519500136375427
1749920261763215600,0.118215576171875,9.853950500488281,5.998950481414795,1.0740000009536743
1749920261773229000,0.12822900390625,9.235950469970703,5.173050403594971,3.061950206756592
1749920261783242200,0.1382421875,8.068050384521484,3.9619503021240234,3.484950065612793
1749920261793255700,0.148255615234375,6.859050273895264,2.8560001850128174,2.7550501823425293
1749920261803268900,0.158268798828125,7.612950325012207,1.7419500350952148,2.0440499782562256
1749920261813282300,0.1682822265625,9.166950225830078,1.294950008392334,1.683000087738037
1749920261823295500,0.17829541015625,10.681950569152832,0.9570000171661377,1.1560500860214233
1749920261833309000,0.188308837890625,10.696950912475586,0.6889500617980957,0.9000000357627869
1749920261843322000,0.198322021484375,9.865950584411621,0.9070500135421753,1.2490500211715698
1749920261853335600,0.20833544921875,9.09000015258789,1.467000126838684,1.6849501132965088
1749920261863348700,0.2183486328125,8.86500072479248,2.0149500370025635,1.9120501279830933
1749920261873362200,0.228362060546875,9.193050384521484,2.2170000076293945,1.6950000524520874
1749920261883375400,0.238375244140625,9.658050537109375,1.9410001039505005,1.1010000705718994
1749920261893388800,0.248388916015625,9.210000038146973,1.696950078010559,0.33705002069473267
1749920261903402000,0.258402099609375,8.662050247192383,1.7329500913619995,0.07905000448226929
1749920261913415200,0.268415283203125,8.041950225830078,2.080049991607666,-0.16200000047683716
1749920261923428600,0.2784287109375,7.5199503898620605,2.7049500942230225,0.17400000989437103
1749920261933442000,0.288442138671875,6.816000461578369,3.52905011177063,1.3690500259399414
1749920261943455200,0.298455322265625,6.7420501708984375,4.836000442504883,4.879050254821777
1749920261953468700,0.30846875,7.006950378417969,5.712000370025635,7.438050270080566
1749920261963481900,0.31848193359375,7.64400053024292,5.559000492095947,6.670050144195557
1749920261973495300,0.328495361328125,7.102950572967529,5.322000026702881,5.544000148773193
1749920261983508500,0.338508544921875,6.49500036239624,5.104050159454346,4.819050312042236
1749920261993521700,0.348521728515625,5.868000507354736,4.394999980926514,3.475950241088867
1749920262003534800,0.358534912109375,5.607000350952148,3.868950128555298,2.038950204849243
1749920262013548300,0.36854833984375,6.090000152587891,3.7219502925872803,0.7849500179290771
1749920262023561700,0.378561767578125,7.05495023727417,3.6670501232147217,0.19095000624656677
1749920262033575000,0.388574951171875,7.668000221252441,3.3799500465393066,0.1789500117301941
1749920262043588400,0.39858837890625,7.852050304412842,3.4039502143859863,-0.031050002202391624
1749920262053601500,0.4086015625,8.761950492858887,3.706050157546997,0.8710500597953796
1749920262063615000,0.418614990234375,8.643000602722168,4.144050121307373,1.1850000619888306
1749920262073628200,0.428628173828125,8.80305004119873,4.3090500831604,1.218000054359436
1749920262083641600,0.4386416015625,10.333050727844238,4.050000190734863,2.110949993133545
1749920262093654800,0.44865478515625,8.056050300598145,3.7110002040863037,0.028050001710653305
1749920262103668000,0.45866796875,12.142951011657715,2.710050106048584,2.8410000801086426
1749920262113681400,0.468681396484375,9.385050773620605,2.698050022125244,0.7660500407218933
1749920262123694600,0.478694580078125,9.504000663757324,2.680950164794922,-0.8160000443458557
1749920262133708000,0.4887080078125,7.098000526428223,2.9800500869750977,-2.7580502033233643
1749920262143721500,0.498721435546875,8.0149507522583,3.076050043106079,-0.9499500393867493
1749920262153734700,0.508734619140625,12.16395092010498,3.069000244140625,1.9339500665664673
1749920262163747800,0.518747802734375,8.938950538635254,3.808950185775757,0.04305000230669975
1749920262173761300,0.52876123046875,10.330050468444824,3.624000072479248,1.0669500827789307
1749920262183774700,0.538774658203125,9.931050300598145,3.5380501747131348,1.8430501222610474
1749920262193788000,0.548787841796875,9.751049995422363,3.4110002517700195,2.53695011138916
1749920262203801000,0.558801025390625,9.919050216674805,3.3390002250671387,3.198000192642212
1749920262213814500,0.568814453125,11.271000862121582,3.2560501098632812,2.370000123977661
1749920262223828000,0.578827880859375,11.652000427246094,3.1339502334594727,1.2520500421524048
1749920262233841200,0.588841064453125,10.078950881958008,2.887050151824951,0.6910500526428223
1749920262243854300,0.598854248046875,9.600000381469727,2.370000123977661,0.9240000247955322
1749920262253867500,0.608867431640625,9.895050048828125,2.2069501876831055,1.5250500440597534
1749920262263881000,0.618880859375,10.01400089263916,2.611950159072876,1.9270501136779785
1749920262273894100,0.62889404296875,9.8899507522583,3.114000082015991,1.9560000896453857
1749920262283907600,0.638907470703125,10.540950775146484,3.6820502281188965,1.8000000715255737
1749920262293920800,0.648920654296875,11.020050048828125,4.060050010681152,1.1850000619888306
1749920262303934000,0.658933837890625,9.631050109863281,3.235950231552124,0.6600000262260437
1749920262313947100,0.668947021484375,8.086950302124023,2.367000102996826,0.7369500398635864
1749920262323960800,0.6789609375,7.43595027923584,2.4460501670837402,1.350000023841858
1749920262333974000,0.68897412109375,7.411950588226318,2.91795015335083,2.2240500450134277
1749920262343987200,0.6989873046875,7.861950397491455,3.1120500564575195,2.800950050354004
1749920262354001000,0.7090009765625,8.556000709533691,2.896050214767456,2.8150501251220703
1749920262364014000,0.71901416015625,9.082950592041016,2.4150002002716064,2.3389501571655273
1749920262374027300,0.72902734375,9.688950538635254,1.9360500574111938,1.467000126838684
1749920262384040400,0.73904052734375,10.318950653076172,1.6900501251220703,1.1700000762939453
1749920262394054100,0.74905419921875,10.090950012207031,1.9699500799179077,1.7809500694274902
1749920262404067300,0.7590673828125,10.033950805664062,2.3770501613616943,2.1610500812530518
1749920262414080500,0.76908056640625,9.865950584411621,2.611950159072876,2.061000108718872
1749920262424094000,0.779093994140625,9.343950271606445,2.7940502166748047,1.6180500984191895
1749920262434107400,0.789107421875,8.869950294494629,2.9610002040863037,1.2109500169754028
1749920262444120600,0.79912060546875,8.7649507522583,2.940000057220459,0.856950044631958
1749920262454134000,0.809134033203125,8.949000358581543,2.7240002155303955,0.6889500617980957
1749920262464147200,0.819147216796875,9.564000129699707,2.5129501819610596,0.7849500179290771
1749920262474160600,0.82916064453125,9.946950912475586,2.608950138092041,0.7680000066757202
1749920262484173800,0.839173828125,10.065000534057617,2.8369500637054443,0.2580000162124634
1749920262494187000,0.84918701171875,10.141050338745117,3.0330002307891846,-0.5070000290870667
1749920262504200400,0.859200439453125,9.994950294494629,3.2410502433776855,-0.8779500126838684
1749920262514213600,0.869213623046875,9.919050216674805,3.703050136566162,-1.1970000267028809
1749920262524227000,0.87922705078125,9.507000923156738,4.4070000648498535,-3.8329501152038574
1749920262534240300,0.889240234375,8.098950386047363,4.072050094604492,-3.6910502910614014
1749920262544253400,0.89925341796875,7.909950256347656,3.8710501194000244,-2.7619500160217285
1749920262554266600,0.9092666015625,8.017950057983398,4.005000114440918,-2.0749499797821045
1749920262564280000,0.919280029296875,8.446050643920898,3.744000196456909,-0.6220500469207764
1749920262574293500,0.92929345703125,9.018000602722168,4.32105016708374,-0.38700002431869507
1749920262584306700,0.939306640625,8.716950416564941,4.783050060272217,-1.6279500722885132
1749920262594320100,0.949320068359375,8.179950714111328,4.776000022888184,-1.9360500574111938
1749920262604333300,0.959333251953125,7.966950416564941,4.659000396728516,-1.8550500869750977
1749920262614346800,0.9693466796875,7.756950378417969,4.44795036315918,-1.3260000944137573
1749920262624360000,0.97935986328125,7.63200044631958,4.113000392913818,-0.6580500602722168
1749920262634373400,0.989373291015625,8.146950721740723,3.6910502910614014,-0.8590500354766846
1749920262644386600,0.999386474609375,8.632950782775879,3.4180500507354736,-1.9800001382827759
1749920262654400000,1.00939990234375,9.351000785827637,3.7009501457214355,-3.1650002002716064
1749920262664413200,1.0194130859375,10.228050231933594,4.052999973297119,-3.2509500980377197
1749920262674426600,1.029426513671875,10.420950889587402,4.027050018310547,-2.8129501342773438
1749920262684439800,1.039439697265625,10.054950714111328,3.853950262069702,-2.580000162124634
1749920262694453000,1.049452880859375,9.523950576782227,3.7390501499176025,-2.25
1749920262704466400,1.059466552734375,9.010950088500977,3.684000253677368,-1.9939501285552979
1749920262714479900,1.06947998046875,8.719050407409668,3.696000099182129,-1.8000000715255737
1749920262724493000,1.0794931640625,8.631000518798828,3.793950080871582,-1.867050051689148
1749920262734506200,1.08950634765625,8.644950866699219,3.9280502796173096,-1.8690000772476196
1749920262744519700,1.099519775390625,8.61405086517334,4.039050102233887,-1.7590501308441162
1749920262754533000,1.109533203125,8.479949951171875,4.174950122833252,-1.7569501399993896
1749920262764546300,1.11954638671875,8.422050476074219,4.361999988555908,-1.7710500955581665
1749920262774559500,1.1295595703125,8.383950233459473,4.623000144958496,-1.6900501251220703
1749920262784572700,1.13957275390625,8.427000045776367,4.654050350189209,-1.540950059890747
1749920262794586400,1.14958642578125,8.434050559997559,4.434000015258789,-1.3189500570297241
1749920262804599600,1.159599609375,8.3860502243042,4.228050231933594,-1.1680500507354736
1749920262814612700,1.16961279296875,8.437050819396973,4.197000026702881,-1.0600500106811523
1749920262824626000,1.1796259765625,8.580000877380371,4.201050281524658,-0.9499500393867493
1749920262834639600,1.1896396484375,8.580000877380371,4.039050102233887,-0.8730000257492065
1749920262844652800,1.19965283203125,8.452950477600098,3.699000120162964,-0.8209500312805176
1749920262854666000,1.209666015625,8.532000541687012,3.3990001678466797,-0.5770500302314758
1749920262864679400,1.219679443359375,8.749950408935547,3.378000259399414,-0.35100001096725464
1749920262874692600,1.229692626953125,9.085050582885742,3.5050501823425293,-0.27000001072883606
1749920262884706000,1.2397060546875,9.271950721740723,3.564000129699707,-0.5290500521659851
1749920262894719200,1.24971923828125,9.414000511169434,3.4999501705169678,-0.8590500354766846
1749920262904732700,1.259732666015625,9.622050285339355,3.544950246810913,-0.9979500770568848
1749920262914746000,1.26974609375,9.636000633239746,3.639000177383423,-0.8850000500679016
1749920262924759300,1.27975927734375,9.307950019836426,3.556950092315674,-0.6510000228881836
1749920262934772500,1.2897724609375,9.499950408935547,3.5380501747131348,-0.4519500136375427
1749920262944786000,1.299785888671875,9.46095085144043,3.586050271987915,-0.31995001435279846
1749920262954799000,1.309799072265625,8.985000610351562,3.5809502601623535,-0.5860500335693359
1749920262964812500,1.3198125,8.973000526428223,3.487950086593628,-0.9570000171661377
1749920262974826000,1.329825927734375,9.550050735473633,3.4260001182556152,0.034950003027915955
1749920262984839200,1.339839111328125,8.82194995880127,3.6000001430511475,-0.05505000427365303
1749920262994852600,1.3498525390625,8.487000465393066,3.718050241470337,-0.3949500322341919
1749920263004865800,1.35986572265625,8.452950477600098,3.595950126647949,-0.38700002431869507
1749920263014879000,1.36987890625,8.51294994354248,3.495000123977661,-0.3730500042438507
1749920263024892400,1.379892333984375,8.797950744628906,3.438000202178955,-0.35895001888275146
1749920263034905600,1.389905517578125,9.034950256347656,3.367950201034546,-0.3469500243663788
1749920263044919000,1.3999189453125,9.265050888061523,3.306000232696533,-0.3040500283241272
1749920263054932500,1.409932373046875,9.277050018310547,3.2290501594543457,-0.27195000648498535
1749920263064945700,1.419945556640625,9.160050392150879,3.177000045776367,-0.2050500065088272
1749920263074959000,1.429958984375,9.046950340270996,3.223950147628784,-0.12195000797510147
1749920263084972300,1.43997216796875,8.995050430297852,3.3390002250671387,-0.1099500060081482
1749920263094985700,1.44998583984375,8.983050346374512,3.390000104904175,-0.10200000554323196
1749920263104999000,1.4599990234375,9.069000244140625,3.3919501304626465,-0.23205001652240753
1749920263115012400,1.470012451171875,9.303000450134277,3.4810502529144287,-0.41805002093315125
1749920263125025500,1.480025634765625,9.535950660705566,3.547950267791748,-0.4620000123977661
1749920263135039000,1.4900390625,9.547950744628906,3.4900500774383545,-0.361050009727478
1749920263145052200,1.50005224609375,9.361050605773926,3.3799500465393066,-0.14805001020431519
1749920263155065600,1.510065673828125,9.172050476074219,3.246000051498413,-0.032999999821186066
1749920263165079000,1.5200791015625,9.121050834655762,3.157050132751465,0.004050000105053186
1749920263175092200,1.53009228515625,9.064050674438477,3.1930501461029053,-0.0499500036239624
1749920263185105700,1.540105712890625,9.022950172424316,3.2920501232147217,-0.33900001645088196
1749920263195119000,1.550119140625,9.052050590515137,3.283950090408325,-0.5719500184059143
1749920263205132300,1.56013232421875,9.196050643920898,3.2749502658843994,-0.3439500033855438
1749920263215145700,1.570145751953125,9.255000114440918,3.2509500980377197,-0.15300001204013824
1749920263225159000,1.580158935546875,9.154950141906738,3.1740002632141113,-0.013950000517070293
1749920263235172000,1.590172119140625,9.117000579833984,3.1120500564575195,0.0070500001311302185
1749920263245185500,1.600185546875,9.042000770568848,3.178950071334839,-0.16005000472068787
1749920263255199000,1.610198974609375,8.923050880432129,3.375000238418579,-0.35100001096725464
1749920263265212200,1.620212158203125,8.87700080871582,3.6150002479553223,-0.5140500068664551
1749920263275225600,1.6302255859375,8.743050575256348,3.579000234603882,-0.7900500297546387
1749920263285238800,1.64023876953125,8.761950492858887,3.3610501289367676,-0.8350500464439392
1749920263295252200,1.650252197265625,8.808000564575195,3.205050230026245,-0.7609500288963318
1749920263305265400,1.660265380859375,8.805000305175781,3.1720502376556396,-0.6700500249862671
1749920263315278800,1.67027880859375,8.844000816345215,3.2920501232147217,-0.6840000152587891
1749920263325292000,1.6802919921875,8.83905029296875,3.517050266265869,-0.909000039100647
1749920263335305500,1.690305419921875,8.674050331115723,3.616950273513794,-1.0960500240325928
1749920263345318700,1.700318603515625,8.455950736999512,3.7110002040863037,-1.3120501041412354
1749920263355332000,1.71033203125,8.419950485229492,3.4729502201080322,-2.133000135421753
1749920263365345300,1.72034521484375,8.731050491333008,3.450000047683716,-1.6849501132965088
1749920263375358700,1.730358642578125,9.09000015258789,3.5119502544403076,-0.5929500460624695
1749920263385372200,1.7403720703125,9.214950561523438,3.397050142288208,-0.21300001442432404
1749920263395385300,1.75038525390625,9.004050254821777,2.9130001068115234,-0.5089499950408936
1749920263405398500,1.7603984375,8.689949989318848,2.272050142288208,-1.1560500860214233
1749920263415411700,1.77041162109375,8.701950073242188,2.1060001850128174,-1.3860000371932983
1749920263425425200,1.780425048828125,8.785950660705566,2.0869500637054443,-2.2980000972747803
1749920263435438600,1.7904384765625,8.832000732421875,2.7739500999450684,-1.8889501094818115
1749920263445451800,1.80045166015625,9.141000747680664,2.959050178527832,-0.6820500493049622
1749920263455465200,1.81046533203125,8.998950004577637,2.470050096511841,-0.25095000863075256
1749920263465478400,1.820478515625,8.595000267028809,1.735050082206726,-0.531000018119812
1749920263475491800,1.830491943359375,8.278950691223145,1.2420001029968262,-1.951050043106079
1749920263485505000,1.840505126953125,8.640000343322754,1.6990500688552856,-2.4630000591278076
1749920263495518500,1.8505185546875,9.094950675964355,2.770050048828125,-2.341050148010254
1749920263505531600,1.86053173828125,8.607000350952148,2.7499501705169678,-2.0749499797821045
1749920263515545000,1.870545166015625,8.23799991607666,3.265050172805786,-1.5840001106262207
1749920263525558300,1.880558349609375,7.0600504875183105,3.385050058364868,-2.092050075531006
1749920263535571700,1.89057177734375,6.3349504470825195,3.037950038909912,-1.9890000820159912
1749920263545585000,1.9005849609375,6.484950542449951,2.76705002784729,-2.121000051498413
1749920263555598000,1.91059814453125,7.636950492858887,1.90500009059906,-1.9360500574111938
1749920263565611500,1.920611572265625,8.503950119018555,0.8710500597953796,-1.8259501457214355
1749920263575625000,1.930625,9.610050201416016,0.5790000557899475,-1.5130500793457031
1749920263585638100,1.94063818359375,9.892050743103027,0.6480000019073486,-1.7950501441955566
1749920263595651300,1.9506513671875,9.28695011138916,0.9310500621795654,-1.5870001316070557
1749920263605664800,1.960664794921875,8.010000228881836,1.0939500331878662,-1.0360500812530518
1749920263615678000,1.970677978515625,6.615000247955322,1.2109500169754028,-1.081950068473816
1749920263625691400,1.98069140625,5.173050403594971,1.2400500774383545,-1.2469500303268433
1749920263635704600,1.99070458984375,4.381050109863281,1.3759500980377197,-1.3140000104904175
1749920263645718000,2.000718017578125,3.7270500659942627,1.0770000219345093,-1.2850500345230103
1749920263655731200,2.010731201171875,3.8370001316070557,0.5380499958992004,-1.4550000429153442
1749920263665744400,2.020744384765625,4.1010003089904785,0.31800001859664917,-1.828950047492981
1749920263675757800,2.0307578125,4.393050193786621,0.49500003457069397,-2.9350502490997314
1749920263685771300,2.040771240234375,4.240050315856934,0.5140500068664551,-3.847050189971924
1749920263695784400,2.050784423828125,2.020050048828125,-0.8370000123977661,-4.04295015335083
1749920263705798000,2.0607978515625,2.2260000705718994,-0.43800002336502075,-4.110000133514404
1749920263715811000,2.07081103515625,3.9760501384735107,0.21300001442432404,-4.05495023727417
1749920263725824300,2.08082421875,4.381050109863281,-0.1099500060081482,-3.6510002613067627
1749920263735837700,2.090837646484375,3.330000162124634,-0.6000000238418579,-3.970950126647949
1749920263745851100,2.10085107421875,2.7550501823425293,-0.39195001125335693,-5.64300012588501
1749920263755864300,2.1108642578125,2.8129501342773438,-0.1789500117301941,-7.113000392913818
1749920263765877800,2.120877685546875,2.788950204849243,-0.2749500274658203,-7.1700005531311035
1749920263775891200,2.13089111328125,2.31000018119812,-0.7110000252723694,-6.076050281524658
1749920263785904400,2.140904296875,1.3590000867843628,-1.4910000562667847,-4.446000099182129
1749920263795917800,2.150917724609375,0.6700500249862671,-2.7120001316070557,-3.4210500717163086
1749920263805931300,2.16093115234375,5.002950191497803,-4.255949974060059,-4.335000038146973
1749920263815944400,2.1709443359375,7.80495023727417,-6.49500036239624,-6.118950366973877
1749920263825957600,2.18095751953125,-6.757950305938721,-7.173000335693359,-4.504950046539307
1749920263835971000,2.19097119140625,-3.982950210571289,-6.235950469970703,-6.787050247192383
1749920263845984500,2.200984619140625,-1.812000036239624,-4.684950351715088,-6.969000339508057
1749920263855997700,2.210997802734375,-0.31800001859664917,-3.586050271987915,-9.27495002746582
1749920263866010000,2.221010009765625,1.867050051689148,-3.624000072479248,-11.13705062866211
1749920263876024300,2.2310244140625,5.0370001792907715,-4.443000316619873,-12.523950576782227
1749920263886037800,2.241037841796875,6.3919501304626465,-5.013000011444092,-12.532950401306152
1749920263896051000,2.251051025390625,6.093000411987305,-5.48205041885376,-12.463950157165527
1749920263906064400,2.261064453125,4.288050174713135,-7.108050346374512,-11.665950775146484
1749920263916077800,2.271077880859375,1.8190500736236572,-9.796950340270996,-11.949000358581543
1749920263926091000,2.281091064453125,3.1840500831604004,-11.02500057220459,-13.195950508117676
1749920263936104400,2.2911044921875,5.989950180053711,-12.592950820922852,-13.4170503616333
1749920263946118000,2.301117919921875,8.121000289916992,-14.242950439453125,-14.33595085144043
1749920263956131000,2.311131103515625,8.458050727844238,-13.594050407409668,-15.717000961303711
1749920263966144300,2.321144287109375,8.638050079345703,-12.330000877380371,-16.44795036315918
1749920263976157400,2.331157470703125,7.723050594329834,-11.508000373840332,-17.329050064086914
1749920263986171100,2.341171142578125,6.712950229644775,-10.741950035095215,-18.193050384521484
1749920263996184300,2.351184326171875,6.0259504318237305,-9.652950286865234,-17.94900131225586
1749920264006197500,2.361197509765625,3.763050079345703,-9.06195068359375,-18.804000854492188
1749920264016210700,2.371210693359375,1.828950047492981,-7.969950199127197,-19.357051849365234
1749920264026224400,2.381224365234375,0.09300000220537186,-6.2719502449035645,-19.624950408935547
1749920264036237600,2.391237548828125,-0.6079500317573547,-4.537050247192383,-19.456951141357422
1749920264046250800,2.401250732421875,0.04500000178813934,-3.280050039291382,-19.099950790405273
1749920264056264200,2.41126416015625,0.7510500550270081,-2.680950164794922,-18.154951095581055
1749920264066277600,2.421277587890625,1.2109500169754028,-2.5009500980377197,-17.22300148010254
1749920264076290800,2.431290771484375,1.636950135231018,-2.3940000534057617,-17.367000579833984
1749920264086304300,2.44130419921875,-0.3060000240802765,-3.7270500659942627,-18.070951461791992
1749920264096317400,2.4513173828125,-1.4190000295639038,-5.57295036315918,-17.1280517578125
1749920264106331000,2.461330810546875,-1.3020000457763672,-6.402000427246094,-15.672000885009766
1749920264116344300,2.47134423828125,-0.4330500066280365,-7.122000217437744,-14.082000732421875
1749920264126357500,2.481357421875,1.1749500036239624,-7.266000270843506,-13.869000434875488
1749920264136370700,2.49137060546875,2.1090002059936523,-6.688950538635254,-14.403000831604004
1749920264146384100,2.501384033203125,1.8769501447677612,-6.172050476074219,-14.032051086425781
1749920264156397300,2.511397216796875,1.810050129890442,-5.85105037689209,-13.666050910949707
1749920264166410800,2.52141064453125,1.527000069618225,-5.767050266265869,-12.969000816345215
1749920264176424000,2.531423828125,1.5529500246047974,-6.13800048828125,-12.069000244140625
1749920264186437400,2.541437255859375,1.6920000314712524,-6.804000377655029,-11.341050148010254
1749920264196450600,2.551450439453125,1.9339500665664673,-7.444950580596924,-9.708000183105469
1749920264206464000,2.561464111328125,1.1130000352859497,-7.785000324249268,-8.145000457763672
1749920264216477400,2.5714775390625,-1.2250500917434692,-6.928050518035889,-8.134950637817383
1749920264226490600,2.58149072265625,-1.9339500665664673,-5.00100040435791,-8.485050201416016
1749920264236503800,2.59150390625,-1.4479501247406006,-4.273050308227539,-7.678050518035889
1749920264246517200,2.601517333984375,-1.4310001134872437,-3.9760501384735107,-7.134000301361084
1749920264256530700,2.61153076171875,-0.23205001652240753,-4.120050430297852,-7.564950466156006
1749920264266543900,2.6215439453125,1.6750500202178955,-4.522050380706787,-7.489050388336182
1749920264276557000,2.63155712890625,1.7760001420974731,-5.154000282287598,-5.671050071716309
1749920264286570500,2.641570556640625,-0.5290500521659851,-5.500950336456299,-3.9310503005981445
1749920264296584000,2.651583984375,0.2530499994754791,-3.888000249862671,-5.901000499725342
1749920264306597000,2.66159716796875,1.234950065612793,-3.744000196456909,-4.89300012588501
1749920264316610300,2.6716103515625,1.141950011253357,-2.896050214767456,-5.583000183105469
1749920264326623700,2.681623779296875,0.9070500135421753,-0.5260500311851501,-6.253050327301025
1749920264336637000,2.691636962890625,0.3679500222206116,-0.4159500300884247,-3.8710501194000244
1749920264346650400,2.701650390625,-0.39900001883506775,-1.2109500169754028,-4.122000217437744
1749920264356663800,2.711663818359375,3.076050043106079,-0.15300001204013824,-6.303000450134277
1749920264366677200,2.72167724609375,3.6940500736236572,-2.110949993133545,-3.9090001583099365
1749920264376690400,2.7316904296875,5.026950359344482,-3.3829500675201416,-2.370000123977661
1749920264396717300,2.75171728515625,2.539950132369995,-4.9960503578186035,-0.8610000610351562
1749920264406730500,2.76173046875,3.3490500450134277,-5.791050434112549,-0.9810000658035278
1749920264416744000,2.771743896484375,4.579950332641602,-6.7699503898620605,-1.4140501022338867
1749920264426757000,2.781757080078125,2.2450501918792725,-8.449049949645996,-2.130000114440918
1749920264436770600,2.7917705078125,-0.7350000143051147,-9.763050079345703,-2.808000087738037
1749920264446784000,2.801783935546875,-1.8000000715255737,-8.28600025177002,-4.197000026702881
1749920264456797200,2.811797119140625,-2.9730000495910645,-6.061950206756592,-5.044050216674805
1749920264466810600,2.821810546875,-2.668950080871582,-4.050000190734863,-5.595000267028809
1749920264476824000,2.831823974609375,-2.539950132369995,-2.6760001182556152,-6.2910003662109375
1749920264486837200,2.841837158203125,-2.596950054168701,-2.110949993133545,-6.454050540924072
1749920264496850400,2.851850341796875,-1.7860500812530518,-2.013000011444092,-5.728950500488281
1749920264506864000,2.861864013671875,-0.41805002093315125,-1.5580500364303589,-4.350000381469727
1749920264516877300,2.871877197265625,-0.6960000395774841,-1.2559500932693481,-4.201050281524658
1749920264526890500,2.881890380859375,-0.8490000367164612,-1.1850000619888306,-5.263950347900391
1749920264546917000,2.901917236328125,-0.14595000445842743,-1.9270501136779785,-4.716000080108643
1749920264556930600,2.9119306640625,-0.20295001566410065,-1.5340501070022583,-6.883050441741943
1749920264566944000,2.921944091796875,-0.08595000207424164,-2.0059502124786377,-7.915050506591797
1749920264576957200,2.931957275390625,0.7969500422477722,-3.1600501537323,-8.52495002746582
1749920264586970600,2.941970703125,0.8880000710487366,-5.27400016784668,-10.909950256347656
1749920264596983800,2.95198388671875,-0.009000000543892384,-7.2300004959106445,-13.297050476074219
1749920264606997000,2.9619970703125,-0.025950001552700996,-9.058950424194336,-14.731050491333008
1749920264617010400,2.972010498046875,1.3450500965118408,-9.792000770568848,-16.624950408935547
1749920264627024000,2.98202392578125,3.3439502716064453,-8.992050170898438,-18.349050521850586
1749920264637037000,2.992037109375,5.880000114440918,-8.200050354003906,-18.279001235961914
1749920264647050200,3.00205029296875,7.680000305175781,-8.809950828552246,-17.443950653076172
1749920264657063700,3.012063720703125,4.654050350189209,-9.628950119018555,-17.767051696777344
1749920264667077000,3.0220771484375,1.3350000381469727,-11.27400016784668,-15.757950782775879
1749920264677090300,3.03209033203125,-2.974950075149536,-11.736001014709473,-15.552000999450684
1749920264687103700,3.042103759765625,-5.45805025100708,-10.813950538635254,-15.282000541687012
1749920264697117200,3.0521171875,-4.410000324249268,-8.173049926757812,-15.258000373840332
1749920264707130600,3.062130615234375,-2.8650002479553223,-6.547950267791748,-13.795050621032715
1749920264717143800,3.072143798828125,-1.9390500783920288,-6.2220001220703125,-13.543951034545898
1749920264727157000,3.082156982421875,-1.7950501441955566,-7.204050540924072,-11.896050453186035
1749920264737170400,3.09217041015625,-2.299950122833252,-8.271000862121582,-9.586050033569336
1749920264747183900,3.102183837890625,-1.078950047492981,-8.134950637817383,-8.623050689697266
1749920264757197300,3.112197265625,1.696950078010559,-6.8520002365112305,-7.05495023727417
1749920264767210800,3.122210693359375,1.4239500761032104,-5.2260003089904785,-6.9310503005981445
1749920264777224000,3.132223876953125,-0.032999999821186066,-5.212050437927246,-5.899050235748291
1749920264787237000,3.142237060546875,-0.9720000624656677,-5.748000144958496,-5.4150004386901855
1749920264797250600,3.15225048828125,-0.4900500178337097,-5.353050231933594,-5.269050121307373
1749920264807264000,3.162263916015625,0.19095000624656677,-4.110000133514404,-4.945950031280518
1749920264817277200,3.172277099609375,0.6480000019073486,-3.201000213623047,-4.422000408172607
1749920264827290600,3.18229052734375,0.5359500050544739,-2.857950210571289,-3.9910502433776855
1749920264837304000,3.192303955078125,0.40905001759529114,-2.7769501209259033,-2.9200501441955566
1749920264847317200,3.202317138671875,0.12195000797510147,-2.367000102996826,-1.8409501314163208
1749920264857330700,3.21233056640625,0.14805001020431519,-1.6279500722885132,-1.651050090789795
1749920264867344100,3.22234423828125,-0.6700500249862671,-1.180050015449524,-1.2229501008987427
1749920264877357300,3.232357421875,-1.519950032234192,-1.8360000848770142,-0.6529500484466553
1749920264887370800,3.242370849609375,-1.234950065612793,-3.2320501804351807,-0.4300500154495239
1749920264897384000,3.252384033203125,-0.4069500267505646,-4.752000331878662,-0.7800000309944153
1749920264907397600,3.262397705078125,0.14295001327991486,-6.343950271606445,0.05700000375509262
1749920264917410800,3.272410888671875,-0.1189500093460083,-6.301050186157227,0.27195000648498535
1749920264927424000,3.282424072265625,-0.41805002093315125,-6.706050395965576,0.700950026512146
1749920264937437400,3.2924375,-0.06705000251531601,-7.405050277709961,0.6510000228881836
1749920264947451000,3.302450927734375,1.125,-7.351950168609619,-0.9000000357627869
1749920264957464000,3.312464111328125,0.3630000054836273,-5.779050350189209,-2.989950180053711
1749920264967477500,3.3224775390625,0.24795001745224,-4.659000396728516,-5.310000419616699
1749920264977490700,3.33249072265625,1.4980500936508179,-5.707050323486328,-6.51900053024292
1749920264987504000,3.342504150390625,-0.16005000472068787,-6.9910502433776855,-6.088050365447998
1749920264997517600,3.352517578125,-1.048050045967102,-7.7659502029418945,-6.916050434112549
1749920265007530800,3.36253076171875,-0.07395000010728836,-8.848050117492676,-8.395950317382812
1749920265017544200,3.372544189453125,0.8640000224113464,-10.443000793457031,-9.933000564575195
1749920265037570800,3.39257080078125,0.6700500249862671,-9.06195068359375,-12.756000518798828
1749920265047584300,3.402584228515625,-0.8040000200271606,-9.472949981689453,-15.604950904846191
1749920265067611000,3.42261083984375,-5.307000160217285,-11.760000228881836,-15.568950653076172
1749920265077624300,3.432624267578125,-5.704950332641602,-10.596000671386719,-13.848000526428223
1749920265087637500,3.442637451171875,-3.970950126647949,-8.604000091552734,-11.12505054473877
1749920265097651000,3.45265087890625,-2.1690001487731934,-8.269050598144531,-8.926950454711914
1749920265107664400,3.462664306640625,-1.0219500064849854,-6.646050453186035,-6.9210004806518555
1749920265117677800,3.472677734375,-1.0120500326156616,-5.57295036315918,-5.403000354766846
1749920265127691000,3.48269091796875,-0.6940500140190125,-5.185050010681152,-3.9880502223968506
1749920265137704200,3.4927041015625,-1.1869500875473022,-4.873950004577637,-2.6710500717163086
1749920265147718000,3.5027177734375,-4.072050094604492,-5.068050384521484,-0.675000011920929
1749920265157731000,3.51273095703125,-8.293050765991211,-6.627000331878662,0.8040000200271606
1749920265167744300,3.522744140625,-9.021000862121582,-7.836000442504883,1.7710500955581665
1749920265177757700,3.5327578125,-6.543000221252441,-8.455950736999512,1.4119501113891602
1749920265187771100,3.542771240234375,-3.496950149536133,-8.017950057983398,1.1770501136779785
1749920265197784600,3.55278466796875,-1.738050103187561,-6.789000511169434,0.8329500555992126
1749920265207797800,3.5627978515625,-1.8889501094818115,-6.4519500732421875,0.361050009727478
1749920265217811200,3.572811279296875,-1.6249500513076782,-6.487950325012207,0.2770500183105469
1749920265227824600,3.58282470703125,-1.6180500984191895,-6.60705041885376,0.5809500217437744
1749920265237837800,3.592837890625,-1.540950059890747,-6.901950359344482,0.48600003123283386
1749920265247851000,3.60285107421875,-1.333050012588501,-7.407000541687012,0.10695000737905502
1749920265257864700,3.61286474609375,-1.2469500303268433,-8.158950805664062,-0.33195000886917114
1749920265267878000,3.6228779296875,-1.0630500316619873,-9.445050239562988,-0.8089500665664673
1749920265277891300,3.632891357421875,-0.4420500099658966,-11.81505012512207,-1.2439500093460083
1749920265287904500,3.642904541015625,0.8730000257492065,-15.18795108795166,-2.1780002117156982
1749920265297918000,3.65291796875,2.5249500274658203,-19.3780517578125,-1.9960501194000244
1749920265307931400,3.662931396484375,4.503000259399414,-22.71795082092285,-1.3159500360488892
1749920265317944600,3.672944580078125,3.6720001697540283,-23.03700065612793,-1.596000075340271
1749920265327958000,3.6829580078125,2.6670000553131104,-21.487051010131836,-2.2210500240325928
1749920265337971500,3.692971435546875,1.6630500555038452,-17.587051391601562,-3.813000202178955
1749920265347984600,3.702984619140625,0.6100500226020813,-14.266950607299805,-4.8070502281188965
1749920265357998000,3.712998046875,-0.18105000257492065,-12.367950439453125,-4.354950428009033
1749920265368011300,3.72301123046875,-0.6600000262260437,-11.0149507522583,-2.9230501651763916
1749920265378025000,3.73302490234375,-1.0669500827789307,-10.110000610351562,-1.5799500942230225
1749920265388038100,3.7430380859375,-1.5720000267028809,-10.030950546264648,-0.9360000491142273
1749920265398051600,3.753051513671875,-1.9440001249313354,-10.048050880432129,-0.8230500221252441
1749920265408064800,3.763064697265625,-2.0250000953674316,-9.763050079345703,-1.1460000276565552
1749920265418078200,3.773078125,-2.0059502124786377,-9.325050354003906,-1.5559500455856323
1749920265428091600,3.783091552734375,-2.2210500240325928,-8.968050003051758,-1.7880001068115234
1749920265438104800,3.793104736328125,-2.350950002670288,-8.829000473022461,-2.0029501914978027
1749920265448118300,3.8031181640625,-2.3959500789642334,-8.829000473022461,-2.1690001487731934
1749920265458131700,3.813131591796875,-2.559000015258789,-8.881950378417969,-2.092050075531006
1749920265468145000,3.823144775390625,-2.476950168609619,-9.235950469970703,-1.7760001420974731
1749920265478158300,3.833158447265625,-1.8619500398635864,-9.556950569152832,-1.5559500455856323
1749920265498185200,3.853185302734375,-1.1269500255584717,-9.442049980163574,-1.6440000534057617
1749920265508198400,3.863198486328125,-1.1680500507354736,-9.358050346374512,-1.9390500783920288
1749920265518211800,3.8732119140625,-1.1869500875473022,-9.600000381469727,-1.9750500917434692
1749920265528225300,3.883225341796875,-1.078950047492981,-9.748950004577637,-1.9030500650405884
1749920265538238500,3.893238525390625,-1.0069500207901,-9.72705078125,-1.981950044631958
1749920265548251600,3.903251708984375,-1.1370000839233398,-9.720000267028809,-2.1379501819610596
1749920265558265300,3.913265380859375,-1.2439500093460083,-10.006950378417969,-2.239950180053711
1749920265568278500,3.923278564453125,-1.327950119972229,-10.572000503540039,-2.269050121307373
1749920265578292000,3.9332919921875,-1.3380000591278076,-10.990950584411621,-2.4660000801086426
1749920265588305200,3.94330517578125,-1.2090001106262207,-11.03700065612793,-2.974950075149536
1749920265598318800,3.95331884765625,-1.1269500255584717,-10.74000072479248,-3.7680001258850098
1749920265608332000,3.96333203125,-1.3759500980377197,-10.258950233459473,-4.4670000076293945
1749920265618345200,3.97334521484375,-1.6249500513076782,-9.859050750732422,-4.79295015335083
1749920265628358700,3.983358642578125,-1.812000036239624,-9.598050117492676,-4.840950012207031
1749920265638372000,3.9933720703125,-1.9560000896453857,-9.418050765991211,-4.644000053405762
1749920265648385500,4.003385498046875,-2.0749499797821045,-9.175950050354004,-4.387950420379639
1749920265658398700,4.013398681640625,-2.2139999866485596,-8.947050094604492,-4.084050178527832
1749920265668412000,4.023411865234375,-2.427000045776367,-8.8410005569458,-3.8209502696990967
1749920265678425300,4.03342529296875,-2.92995023727417,-9.004050254821777,-3.576000213623047
1749920265688438800,4.043438720703125,-3.5329501628875732,-9.291000366210938,-3.4450502395629883
1749920265698452200,4.0534521484375,-3.9210002422332764,-9.583050727844238,-3.484950065612793
1749920265708465400,4.06346533203125,-4.162950038909912,-9.922950744628906,-3.4330501556396484
1749920265718478600,4.073478515625,-4.2709503173828125,-10.108050346374512,-3.2920501232147217
1749920265728492000,4.083491943359375,-4.354950428009033,-10.234950065612793,-3.069000244140625
1749920265738505500,4.09350537109375,-4.005000114440918,-10.369050025939941,-2.8819501399993896
1749920265748519000,4.103518798828125,-2.8129501342773438,-10.486050605773926,-2.5849502086639404
1749920265758532400,4.113532470703125,-1.264050006866455,-10.432950019836426,-2.0970001220703125
1749920265768545800,4.1235458984375,0.08595000207424164,-10.19205093383789,-1.6440000534057617
1749920265778559000,4.13355908203125,1.3570500612258911,-9.796950340270996,-1.204050064086914
1749920265798585900,4.1535859375,2.242950201034546,-7.8409504890441895,-0.9480000734329224
1749920265808599000,4.16359912109375,2.2330501079559326,-7.1010003089904785,-0.9859500527381897
1749920265818612500,4.173612548828125,2.0899500846862793,-6.564000129699707,-1.1700000762939453
1749920265828626000,4.1836259765625,1.7209501266479492,-6.117000102996826,-1.4929500818252563
1749920265838639400,4.193639404296875,1.2060000896453857,-5.779050350189209,-1.7950501441955566
1749920265848652500,4.203652587890625,0.781950056552887,-5.781000137329102,-2.0749499797821045
1749920265858666000,4.213666015625,0.44700002670288086,-6.11400032043457,-2.530050039291382
1749920265868679400,4.223679443359375,0.21705001592636108,-6.466050148010254,-3.366000175476074
1749920265878692600,4.233692626953125,-0.07905000448226929,-6.748950481414795,-4.222949981689453
1749920265888706000,4.2437060546875,-0.4039500057697296,-6.9310503005981445,-4.975050449371338
1749920265898719500,4.253719482421875,-0.4540500342845917,-7.156050205230713,-5.463000297546387
1749920265908733000,4.26373291015625,-0.8059500455856323,-7.255950450897217,-5.829000473022461
1749920265918746000,4.27374609375,-1.6279500722885132,-6.982950210571289,-6.100050449371338
1749920265928759600,4.283759521484375,-2.038950204849243,-6.592950344085693,-6.009000301361084
1749920265938773000,4.29377294921875,-1.3000500202178955,-6.1120500564575195,-5.322000026702881
1749920265948786200,4.3037861328125,0.11700000613927841,-5.959050178527832,-4.537050247192383
1749920265958799600,4.313799560546875,0.9499500393867493,-6.904050350189209,-3.828000068664551
1749920265968813000,4.32381298828125,-0.4069500267505646,-8.434050559997559,-4.630050182342529
1749920265978826200,4.333826171875,-3.825000286102295,-11.704950332641602,-5.63100004196167
1749920265988839700,4.343839599609375,-7.8409504890441895,-15.363000869750977,-5.287950038909912
1749920265998853000,4.35385302734375,-9.459000587463379,-17.49195098876953,-4.0219502449035645
1749920266008866300,4.3638662109375,-7.1770501136779785,-17.845951080322266,-2.5639500617980957
1749920266018879700,4.373879638671875,-3.5020501613616943,-15.708001136779785,-1.5720000267028809
1749920266028893200,4.38389306640625,-0.4639500081539154,-11.707050323486328,-1.4530500173568726
1749920266038906400,4.39390625,1.1149500608444214,-8.85105037689209,-1.659000039100647
1749920266048919800,4.403919921875,1.6630500555038452,-7.32105016708374,-1.3620001077651978
1749920266058933200,4.413933349609375,1.2850500345230103,-6.4830002784729,-0.9430500268936157
1749920266068946700,4.42394677734375,0.5260500311851501,-6.160050392150879,-0.38700002431869507
1749920266078959900,4.4339599609375,0.07395000010728836,-6.564000129699707,-0.33705002069473267
1749920266088973300,4.443973388671875,-0.21000000834465027,-7.648950576782227,-1.0360500812530518
1749920266098986500,4.453986572265625,-0.4639500081539154,-9.040050506591797,-2.149049997329712
1749920266109000000,4.464,-0.739050030708313,-10.165050506591797,-3.3349502086639404
1749920266119013400,4.474013427734375,-1.1509500741958618,-10.836000442504883,-4.660950183868408
1749920266129026800,4.48402685546875,-1.7209501266479492,-11.01300048828125,-6.058950424194336
1749920266139040300,4.494040283203125,-2.0370001792907715,-10.660950660705566,-7.018950462341309
1749920266149053400,4.504053466796875,-1.8550500869750977,-9.772950172424316,-6.804000377655029
1749920266159067000,4.51406689453125,-1.4100000858306885,-8.772000312805176,-5.608950138092041
1749920266169080000,4.524080078125,-0.9019500613212585,-8.307000160217285,-4.539000034332275
1749920266179093800,4.53409375,-0.3439500033855438,-8.326950073242188,-3.718050241470337
1749920266189107000,4.54410693359375,0.20100000500679016,-8.467950820922852,-3.28695011138916
1749920266199120400,4.554120361328125,0.7780500650405884,-8.644950866699219,-3.2220001220703125
1749920266209133800,4.5641337890625,1.3549500703811646,-8.983050346374512,-3.265050172805786
1749920266219147000,4.57414697265625,1.9390500783920288,-9.211950302124023,-3.9790501594543457
1749920266229160400,4.584160400390625,1.7779500484466553,-9.234000205993652,-5.178000450134277
1749920266239174000,4.594173828125,1.3980001211166382,-9.478050231933594,-6.433050155639648
1749920266249187300,4.604187255859375,1.1269500255584717,-10.036050796508789,-7.174950122833252
1749920266259200500,4.614200439453125,1.141950011253357,-10.684950828552246,-7.033950328826904
1749920266269214000,4.6242138671875,1.2439500093460083,-10.906950950622559,-5.604000091552734
1749920266279227400,4.634227294921875,1.4550000429153442,-10.761000633239746,-3.469050168991089
1749920266289240600,4.644240478515625,1.9699500799179077,-10.041000366210938,-2.3940000534057617
1749920266299254300,4.654254150390625,2.817000150680542,-8.85105037689209,-2.1780002117156982
1749920266309267700,4.664267822265625,3.136050224304199,-7.696950435638428,-2.2980000972747803
1749920266319281000,4.674281005859375,2.580000162124634,-7.2109503746032715,-1.960050106048584
1749920266329294600,4.684294677734375,1.4929500818252563,-7.479000568389893,-1.735050082206726
1749920266339307800,4.694307861328125,0.9280500411987305,-8.27400016784668,-1.7190001010894775
1749920266349321000,4.704321044921875,0.7680000066757202,-9.19800090789795,-2.001000165939331
1749920266359334400,4.71433447265625,0.4540500342845917,-9.777000427246094,-2.8129501342773438
1749920266369347800,4.724347900390625,-0.12600000202655792,-9.934950828552246,-3.636000156402588
1749920266379361300,4.734361328125,-0.45000001788139343,-9.943050384521484,-3.9000000953674316
1749920266389374500,4.74437451171875,-0.37995001673698425,-9.957000732421875,-4.189050197601318
1749920266399388200,4.75438818359375,-0.08295000344514847,-9.994950294494629,-4.138950347900391
1749920266409401300,4.7644013671875,0.10695000737905502,-10.00200080871582,-3.370950222015381
1749920266419414800,4.774414794921875,-0.07095000147819519,-9.933000564575195,-2.8060500621795654
1749920266429428200,4.78442822265625,0.07605000585317612,-9.820950508117676,-2.8339500427246094
1749920266439441400,4.79444140625,0.7060500383377075,-9.61500072479248,-3.20805025100708
1749920266449454800,4.804454833984375,1.3830000162124634,-9.291000366210938,-3.5310001373291016
1749920266459468300,4.81446826171875,1.6900501251220703,-8.87700080871582,-3.567000150680542
1749920266469481700,4.824481689453125,1.582050085067749,-8.611050605773926,-3.3349502086639404
1749920266479495000,4.834494873046875,1.6350001096725464,-8.401050567626953,-2.986950159072876
1749920266489508400,4.84450830078125,1.599000096321106,-8.307000160217285,-2.9610002040863037
1749920266499521800,4.854521728515625,1.5010501146316528,-8.370000839233398,-2.9320502281188965
1749920266509535000,4.864534912109375,1.2109500169754028,-8.511000633239746,-2.997000217437744
1749920266519548400,4.87454833984375,0.742050051689148,-8.640000343322754,-3.2749502658843994
1749920266529561600,4.8845615234375,0.8520000576972961,-8.652000427246094,-3.853950262069702
1749920266539575000,4.894574951171875,1.0770000219345093,-8.647050857543945,-4.288050174713135
1749920266549588500,4.90458837890625,0.9760500192642212,-8.710050582885742,-4.957950115203857
1749920266559601700,4.9146015625,1.0270500183105469,-8.800950050354004,-5.37000036239624
1749920266569615000,4.924614990234375,1.1850000619888306,-8.857950210571289,-5.242950439453125
1749920266579628500,4.934628662109375,1.2370500564575195,-8.784000396728516,-5.061000347137451
1749920266589642000,4.94464208984375,1.2799500226974487,-8.580000877380371,-4.864950180053711
1749920266599655200,4.9546552734375,1.4140501022338867,-8.353050231933594,-4.612950325012207
1749920266609668600,4.964668701171875,1.738050103187561,-8.203949928283691,-4.3470001220703125
1749920266619682000,4.97468212890625,2.038950204849243,-8.089950561523438,-4.1010003089904785
1749920266629695200,4.9846953125,2.2450501918792725,-8.080050468444824,-3.9160501956939697
1749920266639708700,4.994708740234375,2.2170000076293945,-8.230950355529785,-3.8419501781463623
1749920266649722000,5.00472216796875,1.88100004196167,-8.734050750732422,-3.787050247192383
1749920266659735300,5.0147353515625,1.434000015258789,-9.571950912475586,-3.7390501499176025
1749920266669748700,5.024748779296875,0.8970000147819519,-10.479000091552734,-3.756000280380249
1749920266679762200,5.03476220703125,0.3850500285625458,-11.118000984191895,-3.9760501384735107
1749920266689775400,5.044775390625,0.0690000057220459,-11.07705020904541,-4.441050052642822
1749920266699788800,5.054788818359375,0.037950001657009125,-10.25100040435791,-4.900050163269043
1749920266709802200,5.06480224609375,0.361050009727478,-9.042000770568848,-5.1660003662109375
1749920266719815700,5.074815673828125,0.6270000338554382,-7.963050365447998,-5.319000244140625
1749920266729828900,5.084828857421875,0.7780500650405884,-7.105050563812256,-5.6260504722595215
1749920266739842600,5.094842529296875,0.8899500370025635,-6.385050296783447,-6.1210503578186035
1749920266749855700,5.104855712890625,1.201050043106079,-5.791050434112549,-6.675000190734863
1749920266759869000,5.114868896484375,1.6200001239776611,-5.559000492095947,-6.955050468444824
1749920266769882400,5.12488232421875,2.0350501537323,-5.791050434112549,-6.7699503898620605
1749920266779896000,5.13489599609375,1.9720500707626343,-6.4930500984191895,-6.448950290679932
1749920266789909200,5.1449091796875,1.4100000858306885,-7.72605037689209,-5.832000255584717
1749920266799922700,5.154922607421875,0.3060000240802765,-9.270000457763672,-4.965000152587891
1749920266809936100,5.16493603515625,-1.0530000925064087,-10.572000503540039,-4.084050178527832
1749920266819949300,5.17494921875,-1.8570001125335693,-11.010000228881836,-3.646050214767456
1749920266829962800,5.184962646484375,-1.2660000324249268,-10.231950759887695,-3.7849502563476562
1749920266839976200,5.19497607421875,0.1770000010728836,-8.662050247192383,-4.069950103759766
1749920266849989600,5.20498974609375,1.120050072669983,-7.07895040512085,-4.279950141906738
1749920266860002800,5.2150029296875,1.3860000371932983,-5.913000106811523,-4.276050090789795
1749920266870016300,5.225016357421875,1.4860501289367676,-5.535000324249268,-3.985950231552124
1749920266880029700,5.23502978515625,1.2679500579833984,-5.692950248718262,-3.936000108718872
1749920266890043000,5.24504296875,1.1970000267028809,-6.1810503005981445,-4.077000141143799
1749920266900056600,5.255056640625,0.8370000123977661,-6.79395055770874,-4.503000259399414
1749920266910069800,5.26506982421875,0.2530499994754791,-7.546050548553467,-5.218950271606445
1749920266920083200,5.275083251953125,-0.3679500222206116,-8.359950065612793,-6.202950477600098
1749920266930096400,5.285096435546875,-0.7249500155448914,-9.217050552368164,-7.2870001792907715
1749920266940109800,5.29510986328125,-0.9979500770568848,-9.784950256347656,-8.407950401306152
1749920266950123000,5.305123046875,-0.8809500336647034,-9.835050582885742,-8.992050170898438
1749920266960136400,5.315136474609375,-0.5809500217437744,-9.576000213623047,-8.977950096130371
1749920266970150000,5.32514990234375,-0.35100001096725464,-9.2989501953125,-8.358000755310059
1749920266980163000,5.3351630859375,-0.4540500342845917,-9.164999961853027,-7.474050521850586
1749920266990176500,5.345176513671875,-0.8400000333786011,-8.992050170898438,-6.552000522613525
1749920267000190000,5.35518994140625,-0.9330000281333923,-8.58495044708252,-5.6449503898620605
1749920267010203100,5.365203125,-0.5260500311851501,-8.053950309753418,-4.800000190734863
1749920267020216600,5.375216552734375,0.09000000357627869,-7.564950466156006,-4.005000114440918
1749920267030230000,5.38522998046875,0.4020000100135803,-7.156050205230713,-3.438000202178955
1749920267040243500,5.395243408203125,0.16200000047683716,-7.006950378417969,-3.198000192642212
1749920267050256600,5.405256591796875,-0.4350000321865082,-7.350000381469727,-3.406050205230713
1749920267060269800,5.415269775390625,-1.0410000085830688,-8.130000114440918,-3.8610002994537354
1749920267070283500,5.425283447265625,-1.3549500703811646,-8.959050178527832,-4.2970499992370605
1749920267080296700,5.435296630859375,-1.3980001211166382,-9.600000381469727,-4.600950241088867
1749920267090310100,5.44531005859375,-1.1100000143051147,-9.892050743103027,-4.611000061035156
1749920267100323600,5.455323486328125,-0.5770500302314758,-9.753000259399414,-4.339950084686279
1749920267110337000,5.4653369140625,-0.0019500000635161996,-9.193050384521484,-3.9190502166748047
1749920267120350200,5.47535009765625,0.18105000257492065,-8.398050308227539,-3.454050064086914
1749920267130363600,5.48536376953125,-0.16500000655651093,-7.582050323486328,-2.9610002040863037
1749920267140377000,5.495377197265625,-0.5329500436782837,-7.216050148010254,-2.7049500942230225
1749920267150390500,5.505390625,-0.5119500160217285,-7.467000484466553,-2.533050060272217
1749920267160403700,5.51540380859375,-0.32505002617836,-8.058000564575195,-2.521050214767456
1749920267170417200,5.525417236328125,-0.14595000445842743,-8.475000381469727,-3.076050043106079
1749920267180430600,5.5354306640625,0.10500000417232513,-8.652000427246094,-3.970950126647949
1749920267190443800,5.54544384765625,0.37095001339912415,-8.756999969482422,-4.813950061798096
1749920267200457200,5.555457275390625,0.7200000286102295,-8.796000480651855,-5.476950168609619
1749920267210470700,5.565470703125,0.9760500192642212,-8.620950698852539,-5.85105037689209
1749920267220483800,5.57548388671875,0.9880500435829163,-8.194950103759766,-6.1020002365112305
1749920267230497300,5.585497314453125,0.7870500087738037,-7.716000556945801,-6.6190505027771
1749920267240510500,5.595510498046875,0.34905001521110535,-7.311000347137451,-7.572000503540039
1749920267250524000,5.60552392578125,-0.034950003027915955,-7.144050121307373,-8.523000717163086
1749920267260537300,5.615537353515625,-0.33900001645088196,-7.222950458526611,-9.097050666809082
1749920267270550800,5.62555078125,-0.6460500359535217,-7.492950439453125,-8.820000648498535
1749920267280564200,5.635564208984375,-0.8470500111579895,-7.864050388336182,-7.582050323486328
1749920267290577700,5.64557763671875,-1.0170000791549683,-8.475000381469727,-5.755050182342529
1749920267300590800,5.6555908203125,-1.1440500020980835,-9.382050514221191,-4.291950225830078
1749920267310604000,5.66560400390625,-1.264050006866455,-10.47705078125,-2.9419500827789307
1749920267320617500,5.675617431640625,-1.7310000658035278,-11.767050743103027,-1.4820001125335693
1749920267330631000,5.685630859375,-2.371950149536133,-13.25100040435791,-0.14595000445842743
1749920267340644400,5.695644287109375,-2.142000198364258,-14.419950485229492,0.8449500203132629
1749920267350657800,5.70565771484375,-1.2439500093460083,-15.11400032043457,1.612950086593628
1749920267360671200,5.715671142578125,-0.18405000865459442,-14.640000343322754,2.158950090408325
1749920267370684400,5.725684326171875,0.8470500111579895,-13.171950340270996,2.0970001220703125
1749920267380697600,5.735697509765625,1.828950047492981,-11.238000869750977,1.672950029373169
1749920267390711000,5.7457109375,2.3149502277374268,-9.44895076751709,1.3570500612258911
1749920267400724500,5.755724365234375,2.48895001411438,-8.070000648498535,1.1299500465393066
1749920267410738000,5.765738037109375,2.1160500049591064,-7.105050563812256,0.6790500283241272
1749920267420751000,5.775751220703125,1.1220000982284546,-6.588000297546387,0.06705000251531601
1749920267430764500,5.7857646484375,-0.05205000191926956,-6.721950531005859,-0.7369500398635864
1749920267440778000,5.795778076171875,-0.6220500469207764,-7.768950462341309,-1.6470000743865967
1749920267450791200,5.805791259765625,-1.0909500122070312,-8.998950004577637,-2.5920000076293945
1749920267460804600,5.8158046875,-1.4140501022338867,-10.189050674438477,-3.8400001525878906
1749920267470818000,5.825818115234375,-1.01895010471344,-10.981950759887695,-4.9360504150390625
1749920267480831200,5.835831298828125,-0.6150000095367432,-11.250000953674316,-5.592000484466553
1749920267490844700,5.8458447265625,-0.44700002670288086,-10.912050247192383,-5.899050235748291
1749920267500858000,5.855858154296875,-0.4830000102519989,-10.074000358581543,-5.8560004234313965
1749920267510871300,5.865871337890625,-0.612000048160553,-9.064050674438477,-5.4370503425598145
1749920267520884700,5.875884765625,-0.6910500526428223,-8.133000373840332,-4.864950180053711
1749920267530898200,5.885898193359375,-0.6649500131607056,-7.5010504722595215,-4.359000205993652
1749920267540911400,5.895911376953125,-0.48600003123283386,-7.249050140380859,-4.000050067901611
1749920267550925000,5.905925048828125,-0.1980000138282776,-7.302000522613525,-3.8520002365112305
1749920267560938200,5.915938232421875,0.12405000627040863,-7.692000389099121,-3.825000286102295
1749920267570951400,5.925951416015625,0.37995001673698425,-8.338950157165527,-3.7540502548217773
1749920267580964900,5.93596484375,0.5770500302314758,-9.06195068359375,-3.5500502586364746
1749920267590978300,5.945978271484375,0.781950056552887,-9.745950698852539,-3.1960501670837402
1749920267600991500,5.955991455078125,0.8640000224113464,-10.168050765991211,-2.7499501705169678
1749920267611005000,5.9660048828125,0.7300500273704529,-10.182000160217285,-2.3080501556396484
1749920267621018000,5.97601806640625,0.4810500144958496,-9.86400032043457,-2.050950050354004
1749920267631031800,5.98603173828125,0.226950004696846,-9.574050903320312,-2.0940001010894775
1749920267641045000,5.996044921875,0.05205000191926956,-9.493050575256348,-2.272050142288208
1749920267651058400,6.006058349609375,-0.11400000751018524,-9.607050895690918,-2.461050033569336
1749920267661071600,6.016071533203125,-0.4639500081539154,-9.768000602722168,-2.5879502296447754
1749920267671085000,6.0260849609375,-0.7060500383377075,-9.813000679016113,-2.6449501514434814
1749920267681098500,6.036098388671875,-0.8040000200271606,-9.610050201416016,-2.6929500102996826
1749920267691111700,6.046111572265625,-0.7230000495910645,-9.265050888061523,-2.6950502395629883
1749920267701125000,6.056125,-0.48795002698898315,-8.937000274658203,-2.7310500144958496
1749920267711138600,6.066138671875,-0.06195000186562538,-8.640000343322754,-2.8849501609802246
1749920267721151700,6.07615185546875,0.4639500081539154,-8.443950653076172,-3.138000249862671
1749920267731165200,6.086165283203125,0.9139500260353088,-8.329050064086914,-3.4620001316070557
1749920267741178400,6.096178466796875,1.1080501079559326,-8.331000328063965,-3.6720001697540283
1749920267751191800,6.10619189453125,1.009950041770935,-8.473050117492676,-3.7990500926971436
1749920267761205200,6.116205322265625,0.7699500322341919,-8.80305004119873,-3.808950185775757
1749920267771218400,6.126218505859375,0.6270000338554382,-9.325050354003906,-3.7900502681732178
1749920267781231900,6.13623193359375,0.6630000472068787,-9.910950660705566,-3.8110501766204834
1749920267791245300,6.146245361328125,0.8059500455856323,-10.405050277709961,-3.7920002937316895
1749920267801258800,6.1562587890625,1.0270500183105469,-10.749000549316406,-3.5089502334594727
1749920267811272200,6.166272216796875,1.29705011844635,-10.912050247192383,-2.8849501609802246
1749920267821285600,6.17628564453125,1.543950080871582,-11.06100082397461,-2.1259500980377197
1749920267831298800,6.186298828125,1.7640000581741333,-11.178000450134277,-1.3519500494003296
1749920267841312000,6.19631201171875,1.9360500574111938,-11.302950859069824,-0.6390000581741333
1749920267851325700,6.20632568359375,1.7070001363754272,-11.29800033569336,0.06405000388622284
1749920267861339000,6.2163388671875,0.9930000305175781,-11.130000114440918,0.5839500427246094
1749920267871352300,6.226352294921875,-0.05505000427365303,-10.857000350952148,0.7990500330924988
1749920267881365500,6.236365478515625,-0.9619500637054443,-10.474050521850586,0.6720000505447388
1749920267891379000,6.24637890625,-1.4220000505447388,-10.026000022888184,0.286950021982193
1749920267901392400,6.256392333984375,-1.4479501247406006,-9.6670503616333,-0.22005000710487366
1749920267911405600,6.266405517578125,-1.3620001077651978,-9.315000534057617,-0.7440000176429749
1749920267921419000,6.2764189453125,-1.4910000562667847,-9.196050643920898,-1.2540000677108765
1749920267931432400,6.286432373046875,-1.891050100326538,-9.478050231933594,-1.6440000534057617
1749920267941445600,6.296445556640625,-2.470050096511841,-10.029000282287598,-2.041949987411499
1749920267951459000,6.306458984375,-3.061950206756592,-10.584000587463379,-2.5609500408172607
1749920267961472500,6.316472412109375,-3.5929501056671143,-10.869000434875488,-3.186000108718872
1749920267971485700,6.326485595703125,-3.8110501766204834,-10.95300006866455,-3.8899502754211426
1749920267981499100,6.3364990234375,-3.5910000801086426,-10.951050758361816,-4.41195011138916
1749920267991512300,6.34651220703125,-3.2560501098632812,-11.032050132751465,-4.572000026702881
1749920268001525800,6.35652587890625,-3.235950231552124,-11.202000617980957,-4.394999980926514
1749920268011539200,6.366539306640625,-3.5929501056671143,-11.338050842285156,-3.9379501342773438
1749920268021552600,6.376552734375,-4.338000297546387,-11.224050521850586,-3.4020001888275146
1749920268031565800,6.38656591796875,-5.142000198364258,-10.833000183105469,-3.406050205230713
1749920268041579300,6.396579345703125,-5.2669501304626465,-10.498050689697266,-3.8490002155303955
1749920268051592700,6.4065927734375,-4.594050407409668,-10.4170503616333,-4.339950084686279
1749920268061606000,6.41660595703125,-3.643050193786621,-10.519950866699219,-4.777950286865234
1749920268071619000,6.426619140625,-2.521050214767456,-10.644000053405762,-5.209050178527832
1749920268081632500,6.436632568359375,-1.0890001058578491,-10.660950660705566,-5.761950492858887
1749920268091646000,6.44664599609375,0.6700500249862671,-10.572000503540039,-6.544950485229492
1749920268101659400,6.456659423828125,2.7430500984191895,-10.29900074005127,-6.924000263214111
1749920268111672600,6.466672607421875,4.6180500984191895,-9.784950256347656,-6.612000465393066
1749920268121686000,6.47668603515625,5.724000453948975,-9.259950637817383,-5.841000080108643
1749920268131699500,6.486699462890625,6.088050365447998,-9.164999961853027,-5.092050075531006
1749920268141712600,6.496712646484375,5.944050312042236,-9.006000518798828,-4.2900004386901855
1749920268151725800,6.506725830078125,5.185050010681152,-8.748000144958496,-3.604950189590454
1749920268161739300,6.5167392578125,3.718050241470337,-8.743050575256348,-2.9830501079559326
1749920268171752700,6.526752685546875,1.9290001392364502,-9.454050064086914,-2.53695011138916
1749920268181766100,6.53676611328125,0.4420500099658966,-10.612950325012207,-2.202000141143799
1749920268191779300,6.546779296875,-0.9240000247955322,-11.757000923156738,-1.7040001153945923
1749920268201792800,6.556792724609375,-2.619000196456909,-13.006950378417969,-1.1440500020980835
1749920268211806000,6.566805908203125,-4.0980000495910645,-14.3100004196167,-0.7230000495910645
1749920268221819400,6.5768193359375,-4.141050338745117,-15.234001159667969,-0.6960000395774841
1749920268231832600,6.58683251953125,-3.2940001487731934,-15.616950988769531,-0.6960000395774841
1749920268241846000,6.596845947265625,-2.2960500717163086,-15.672000885009766,-0.6340500116348267
1749920268251859200,6.606859130859375,-1.4500501155853271,-15.313050270080566,-0.4039500057697296
1749920268261872600,6.61687255859375,-0.6649500131607056,-14.716950416564941,-0.046950001269578934
1749920268271886000,6.626885986328125,-0.15000000596046448,-13.965001106262207,0.35100001096725464
1749920268281899300,6.636899169921875,0.10500000417232513,-13.23900032043457,0.739050030708313
1749920268291912700,6.64691259765625,-0.08295000344514847,-12.658050537109375,1.1080501079559326
1749920268301926100,6.656926025390625,-0.7459500432014465,-12.262950897216797,1.264050006866455
1749920268311939300,6.666939208984375,-1.672950029373169,-11.913000106811523,1.1680500507354736
1749920268321952800,6.676952880859375,-2.809950113296509,-11.464950561523438,0.7870500087738037
1749920268331966200,6.68696630859375,-4.122000217437744,-10.785000801086426,0.24105000495910645
1749920268341979400,6.6969794921875,-4.932000160217285,-9.973950386047363,-0.4069500267505646
1749920268351992800,6.706992919921875,-5.293050289154053,-9.31095027923584,-1.2520500421524048
1749920268362006300,6.71700634765625,-5.1570000648498535,-9.04995059967041,-2.1259500980377197
1749920268372019700,6.727019775390625,-3.982950210571289,-8.977950096130371,-2.6929500102996826
1749920268382033000,6.737032958984375,-2.1259500980377197,-8.923050880432129,-3.166950225830078
1749920268392046000,6.747046142578125,-0.8659500479698181,-8.707050323486328,-3.9810001850128174
1749920268402059500,6.7570595703125,-0.7320000529289246,-8.503950119018555,-5.140050411224365
1749920268412073000,6.767072998046875,-1.0980000495910645,-8.527950286865234,-6.414000511169434
1749920268422086100,6.777086181640625,-2.110949993133545,-8.487000465393066,-8.11305046081543
1749920268432099600,6.787099609375,-3.81600022315979,-8.152050018310547,-9.95895004272461
1749920268442113000,6.797113037109375,-4.884000301361084,-7.740000247955322,-11.86305046081543
1749920268452126200,6.807126220703125,-5.748000144958496,-7.630050182342529,-13.656001091003418
1749920268462139600,6.8171396484375,-6.370050430297852,-7.773000240325928,-14.836050987243652
1749920268472153000,6.827153076171875,-6.4830002784729,-8.056050300598145,-14.686050415039062
1749920268482166300,6.837166259765625,-6.178950309753418,-8.134950637817383,-13.120050430297852
1749920268492179700,6.8471796875,-5.848950386047363,-8.146950721740723,-10.089000701904297
1749920268502193200,6.857193115234375,-5.343000411987305,-8.54699993133545,-7.110000133514404
1749920268512206600,6.86720654296875,-4.891050338745117,-8.824950218200684,-4.932000160217285
1749920268522219800,6.8772197265625,-4.555950164794922,-9.07395076751709,-3.307950258255005
1749920268532233000,6.88723291015625,-4.027050018310547,-9.160050392150879,-2.281050205230713
1749920268542246400,6.897246337890625,-3.624000072479248,-8.805000305175781,-1.8409501314163208
1749920268552259800,6.907259765625,-3.4140002727508545,-8.122950553894043,-1.7640000581741333
1749920268562273000,6.91727294921875,-3.544950246810913,-7.2109503746032715,-1.7280000448226929
1749920268572286500,6.927286376953125,-4.015050411224365,-6.049950122833252,-1.7070001363754272
1749920268582299600,6.937299560546875,-4.69005012512207,-4.860000133514404,-1.9579501152038574
1749920268592313000,6.94731298828125,-5.029950141906738,-3.885000228881836,-2.7430500984191895
1749920268602326300,6.957326171875,-4.849950313568115,-3.28695011138916,-3.8419501781463623
1749920268612339700,6.967339599609375,-4.768950462341309,-3.0109500885009766,-4.8070502281188965
1749920268622353200,6.977353271484375,-5.049000263214111,-2.877000093460083,-5.413050174713135
1749920268632366600,6.98736669921875,-5.070000171661377,-2.7910501956939697,-5.7430500984191895
1749920268642379800,6.9973798828125,-4.752000331878662,-2.7310500144958496,-5.761950492858887
1749920268652393200,7.007393310546875,-4.3090500831604,-2.8030500411987305,-5.359950065612793
1749920268662406700,7.01740673828125,-4.110000133514404,-3.117000102996826,-4.510050296783447
1749920268672419800,7.027419921875,-4.125,-3.38700008392334,-3.5310001373291016
1749920268682433000,7.03743310546875,-4.285050392150879,-3.189000129699707,-2.76705002784729
1749920268692446500,7.047446533203125,-4.528950214385986,-2.700000047683716,-2.2669501304626465
1749920268702460000,7.0574599609375,-4.744950294494629,-2.110949993133545,-1.7809500694274902
1749920268712473000,7.06747314453125,-4.963050365447998,-1.443000078201294,-1.327950119972229
1749920268722486500,7.077486572265625,-5.2669501304626465,-0.7110000252723694,-1.1299500465393066
1749920268732499700,7.087499755859375,-5.509050369262695,0.0019500000635161996,-1.4599500894546509
1749920268742513200,7.09751318359375,-5.485050201416016,0.45000001788139343,-2.200050115585327
1749920268752526600,7.107526611328125,-5.049000263214111,0.49500003457069397,-3.0709500312805176
1749920268762539800,7.117539794921875,-4.812000274658203,0.21705001592636108,-3.52905011177063
1749920268772553000,7.127552978515625,-5.227950096130371,-0.1360500007867813,-3.258000135421753
1749920268782566400,7.13756640625,-5.767050266265869,-0.19095000624656677,-2.7720000743865967
1749920268792579800,7.147579833984375,-5.566050052642822,0.32505002617836,-2.6140501499176025
1749920268802593300,7.15759326171875,-4.837950229644775,1.1340000629425049,-2.8729500770568848
1749920268812606500,7.1676064453125,-4.326000213623047,1.8889501094818115,-3.0709500312805176
1749920268822620000,7.177619873046875,-3.9810001850128174,2.4370501041412354,-3.5089502334594727
1749920268832633000,7.187633056640625,-3.7920002937316895,2.638050079345703,-4.429050445556641
1749920268842646500,7.197646484375,-3.90405011177063,2.319000005722046,-5.6449503898620605
1749920268852659700,7.20765966796875,-4.366950035095215,1.5919500589370728,-6.586050510406494
1749920268862673200,7.217673095703125,-4.873950004577637,0.7680000066757202,-7.189050197601318
1749920268872686600,7.2276865234375,-5.374050140380859,0.10500000417232513,-7.759050369262695
1749920268882699800,7.23769970703125,-5.875050067901611,-0.5260500311851501,-8.334000587463379
1749920268892713000,7.247712890625,-6.256050109863281,-0.7350000143051147,-8.860050201416016
1749920268902726400,7.257726318359375,-6.339000225067139,-0.361050009727478,-9.034950256347656
1749920268912739800,7.26773974609375,-6.696000099182129,0.05505000427365303,-9.250950813293457
1749920268922753000,7.2777529296875,-7.570050239562988,0.22200001776218414,-10.4839506149292
1749920268932766500,7.287766357421875,-8.725950241088867,0.2440500110387802,-12.562050819396973
1749920268942779600,7.297779541015625,-9.307950019836426,0.031050002202391624,-14.326050758361816
1749920268952793000,7.30779296875,-8.59695053100586,-0.16695000231266022,-14.664000511169434
1749920268962806500,7.317806640625,-7.572000503540039,-0.004050000105053186,-13.455000877380371
1749920268972819700,7.32781982421875,-6.889950275421143,0.22500000894069672,-11.224050521850586
1749920268982833200,7.337833251953125,-6.804000377655029,0.15000000596046448,-8.580000877380371
1749920268992846300,7.347846435546875,-7.663050174713135,0.16500000655651093,-6.4930500984191895
1749920269002859800,7.35785986328125,-8.154000282287598,0.016050001606345177,-4.6369500160217285
1749920269012873000,7.367873046875,-7.71405029296875,-0.42600002884864807,-3.325050115585327
1749920269022886400,7.377886474609375,-7.015050411224365,-1.0840500593185425,-2.8750500679016113
1749920269032899800,7.38789990234375,-6.070950508117676,-1.6320000886917114,-3.556950092315674
1749920269042913000,7.3979130859375,-5.0560503005981445,-2.0629501342773438,-4.7470502853393555
1749920269052926500,7.407926513671875,-4.599000453948975,-2.5420501232147217,-5.389050483703613
1749920269062939600,7.417939697265625,-4.812000274658203,-2.9610002040863037,-5.431950092315674
1749920269072953000,7.427953125,-5.2759504318237305,-2.9200501441955566,-5.45805025100708
1749920269082966500,7.437966552734375,-5.6569504737854,-2.2480502128601074,-5.748000144958496
1749920269092979700,7.447979736328125,-5.623050212860107,-1.1179500818252563,-6.0420002937316895
1749920269102993000,7.457992919921875,-5.133000373840332,0.21000000834465027,-5.997000217437744
1749920269113006300,7.46800634765625,-4.564949989318848,1.6110000610351562,-5.824950218200684
1749920269123019800,7.478019775390625,-3.9979500770568848,2.8560001850128174,-5.559000492095947
1749920269133033000,7.488032958984375,-3.457050085067749,3.8370001316070557,-5.158950328826904
1749920269143046400,7.49804638671875,-2.620950222015381,4.219950199127197,-4.600950241088867
1749920269153059800,7.508059814453125,-2.133000135421753,4.057950019836426,-4.132050037384033
1749920269163073000,7.518072998046875,-3.0210001468658447,4.72605037689209,-5.704950332641602
1749920269173086500,7.52808642578125,-4.072050094604492,4.201050281524658,-8.157000541687012
1749920269183099600,7.538099609375,-4.6870503425598145,2.0299501419067383,-8.836050033569336
1749920269193112800,7.54811279296875,-5.4150004386901855,-0.16200000047683716,-8.269050598144531
1749920269203126500,7.55812646484375,-5.9509501457214355,-1.7929500341415405,-8.097000122070312
1749920269213139700,7.5681396484375,-5.808000087738037,-2.7580502033233643,-8.556000709533691
1749920269223153000,7.57815283203125,-4.999050140380859,-3.3229501247406006,-8.431950569152832
1749920269233166300,7.588166259765625,-4.3279500007629395,-3.201000213623047,-8.206950187683105
1749920269243179800,7.5981796875,-4.41195011138916,-2.4820501804351807,-8.829000473022461
1749920269253193000,7.60819287109375,-4.522050380706787,-1.752000093460083,-9.69795036315918
1749920269263206400,7.618206298828125,-4.387950420379639,-1.3399500846862793,-9.780000686645508
1749920269273219600,7.628219482421875,-3.8710501194000244,-0.8590500354766846,-9.544950485229492
1749920269283233000,7.63823291015625,-3.318000078201294,-0.29205000400543213,-9.265050888061523
1749920269293246500,7.64824658203125,-2.998950242996216,0.18900001049041748,-9.178950309753418
1749920269303259600,7.658259765625,-2.8320000171661377,0.4300500154495239,-9.210000038146973
1749920269313272800,7.66827294921875,-3.189000129699707,0.6480000019073486,-9.540000915527344
1749920269323286500,7.67828662109375,-3.7270500659942627,0.6220500469207764,-9.946950912475586
1749920269333299700,7.6882998046875,-4.252050399780273,0.24795001745224,-10.01400089263916
1749920269343313000,7.69831298828125,-4.315950393676758,-0.33195000886917114,-9.574050903320312
1749920269353326300,7.708326416015625,-4.04295015335083,-0.856950044631958,-8.82705020904541
1749920269363339800,7.71833984375,-3.718050241470337,-1.2330000400543213,-7.999050617218018
1749920269373353000,7.72835302734375,-3.733950138092041,-1.4620500802993774,-7.338000297546387
1749920269383366100,7.7383662109375,-3.699000120162964,-1.4140501022338867,-7.311000347137451
1749920269393379600,7.748379638671875,-3.7699501514434814,-1.2060000896453857,-7.576950550079346
1749920269403393000,7.75839306640625,-3.813000202178955,-1.0980000495910645,-7.813950538635254
1749920269413406200,7.76840625,-3.892050266265869,-1.0309500694274902,-8.097000122070312
1749920269423419600,7.778419677734375,-3.9160501956939697,-1.1320500373840332,-8.008049964904785
1749920269433432800,7.788432861328125,-3.655050277709961,-1.3830000162124634,-7.708950519561768
1749920269443446300,7.7984462890625,-3.5410501956939697,-1.5649501085281372,-7.752000331878662
1749920269453459500,7.80845947265625,-3.3799500465393066,-1.9120501279830933,-7.945950508117676
1749920269463473000,7.818472900390625,-3.2560501098632812,-2.329050064086914,-8.353050231933594
1749920269473486300,7.828486328125,-3.514050245285034,-2.638050079345703,-8.974950790405273
1749920269483499800,7.838499755859375,-3.9810001850128174,-2.9440500736236572,-9.696000099182129
1749920269493513000,7.848512939453125,-4.414050102233887,-3.2719502449035645,-10.278000831604004
1749920269503526100,7.858526123046875,-4.546050071716309,-3.7009501457214355,-10.258950233459473
1749920269513539300,7.868539306640625,-4.34505033493042,-4.045950412750244,-9.793950080871582
1749920269523553000,7.878552978515625,-3.948000192642212,-4.1579999923706055,-9.43695068359375
1749920269533566200,7.888566162109375,-3.4639501571655273,-4.174950122833252,-9.271950721740723
1749920269543579400,7.898579345703125,-3.106950044631958,-4.122000217437744,-9.499950408935547
1749920269553592800,7.9085927734375,-2.997000217437744,-4.005000114440918,-10.18005084991455
1749920269563606300,7.918606201171875,-3.3540000915527344,-4.138950347900391,-10.551000595092773
1749920269573619500,7.928619384765625,-3.718050241470337,-4.335000038146973,-10.555950164794922
1749920269583633000,7.9386328125,-3.8520002365112305,-4.438050270080566,-10.327950477600098
1749920269593646000,7.94864599609375,-3.766050100326538,-4.546050071716309,-9.805950164794922
1749920269603659500,7.958659423828125,-3.6220502853393555,-4.495950222015381,-8.971050262451172
1749920269613673000,7.9686728515625,-3.556950092315674,-4.153050422668457,-8.334000587463379
1749920269623686100,7.97868603515625,-3.38700008392334,-3.7129502296447754,-8.041950225830078
1749920269633699300,7.98869921875,-3.306000232696533,-3.4140002727508545,-7.909950256347656
1749920269643712800,7.998712646484375,-3.2340002059936523,-3.2920501232147217,-7.921950340270996
1749920269653726200,8.008726318359376,-3.2629501819610596,-3.327000141143799,-8.371950149536133
1749920269663739400,8.018739501953124,-3.358950138092041,-3.664950132369995,-8.89905071258545
1749920269673752800,8.0287529296875,-3.616950273513794,-4.35705041885376,-8.980050086975098
1749920269683766300,8.038766357421874,-3.7699501514434814,-5.173050403594971,-8.880000114440918
1749920269693779500,8.048779541015625,-3.763050079345703,-5.893950462341309,-9.217050552368164
1749920269703792600,8.058792724609376,-3.7729501724243164,-6.639000415802002,-9.82800006866455
1749920269713806300,8.068806396484375,-3.7849502563476562,-7.489050388336182,-10.204050064086914
1749920269723819500,8.078819580078125,-3.9210002422332764,-8.377050399780273,-10.225050926208496
1749920269733832700,8.088832763671874,-4.03095006942749,-9.193050384521484,-10.117050170898438
1749920269743846100,8.09884619140625,-4.122000217437744,-9.71505069732666,-10.033950805664062
1749920269753859300,8.108859375,-4.153050422668457,-9.507000923156738,-9.8899507522583
1749920269763872800,8.118872802734375,-3.9000000953674316,-8.331000328063965,-9.442049980163574
1749920269773886000,8.128885986328125,-3.664950132369995,-7.024050235748291,-8.712000846862793
1749920269783899400,8.1388994140625,-3.4420502185821533,-6.045000076293945,-7.891050338745117
1749920269793912800,8.148912841796875,-3.166950225830078,-5.2260003089904785,-7.363950252532959
1749920269803926000,8.158926025390626,-2.889000177383423,-4.627050399780273,-7.363950252532959
1749920269813939500,8.168939453125,-2.6830501556396484,-4.507950305938721,-7.560000419616699
1749920269823952600,8.17895263671875,-2.473050117492676,-4.872000217437744,-7.63200044631958
1749920269833965800,8.1889658203125,-2.1610500812530518,-5.403000354766846,-7.363950252532959
1749920269843979300,8.198979248046875,-1.9890000820159912,-5.824950218200684,-6.9810004234313965
1749920269853992700,8.20899267578125,-2.0659501552581787,-6.234000205993652,-6.801000118255615
1749920269864006000,8.219005859375,-2.350950002670288,-6.796950340270996,-6.600000381469727
1749920269874019300,8.229019287109375,-2.7310500144958496,-7.387950420379639,-6.078000068664551
1749920269884032500,8.239032470703124,-2.9800500869750977,-7.836000442504883,-5.377050399780273
1749920269894046000,8.2490458984375,-2.977950096130371,-7.999050617218018,-4.711050033569336
1749920269904059100,8.25905908203125,-2.9010000228881836,-7.699050426483154,-4.209000110626221
1749920269914072600,8.269072509765625,-2.968050241470337,-6.8680500984191895,-3.957000255584717
1749920269924085800,8.279085693359375,-3.1930501461029053,-5.836950302124023,-3.90405011177063
1749920269934099200,8.28909912109375,-3.5880000591278076,-5.089950084686279,-3.9880502223968506
1749920269944112600,8.299112548828125,-4.138950347900391,-4.849950313568115,-4.495950222015381
1749920269954125800,8.309125732421874,-4.615950107574463,-5.4970502853393555,-5.578050136566162
1749920269964139000,8.319138916015625,-4.81695032119751,-6.706050395965576,-6.799050331115723
1749920269974152400,8.32915234375,-4.951050281524658,-7.927050590515137,-8.157000541687012
1749920269984166000,8.339165771484375,-5.130000114440918,-8.913000106811523,-9.315000534057617
1749920269994179000,8.349178955078125,-5.1060004234313965,-9.514050483703613,-9.97095012664795
1749920270004192300,8.359192138671874,-4.9770002365112305,-9.540000915527344,-9.981000900268555
1749920270014205700,8.369205810546875,-4.89300012588501,-8.725950241088867,-9.631050109863281
1749920270024219100,8.37921923828125,-4.71405029296875,-7.252050399780273,-9.295950889587402
1749920270034232300,8.389232421875,-4.4070000648498535,-5.647050380706787,-8.938950538635254
1749920270044245500,8.39924560546875,-4.045950412750244,-4.288050174713135,-8.518050193786621
1749920270054259000,8.409259033203124,-3.6720001697540283,-3.397050142288208,-8.11305046081543
1749920270064272400,8.4192724609375,-3.475950241088867,-2.998950242996216,-7.891050338745117
1749920270074285600,8.42928564453125,-3.327000141143799,-3.337050199508667,-7.7059502601623535
1749920270084299000,8.439299072265625,-3.166950225830078,-4.2370500564575195,-7.318950176239014
1749920270094312200,8.449312255859375,-3.1120500564575195,-5.1469502449035645,-6.672000408172607
1749920270104325600,8.45932568359375,-3.1650002002716064,-5.638050079345703,-6.129000186920166
1749920270114338800,8.4693388671875,-3.235950231552124,-5.758050441741943,-5.833950042724609
1749920270124352300,8.479352294921876,-3.44700026512146,-5.6449503898620605,-5.91795015335083
1749920270134365700,8.48936572265625,-3.7609500885009766,-5.559000492095947,-6.438000202178955
1749920270144379000,8.49937890625,-3.9880502223968506,-5.590050220489502,-7.048050403594971
1749920270154392300,8.509392333984374,-4.05495023727417,-5.52495002746582,-7.52400016784668
1749920270164405500,8.519405517578125,-4.039050102233887,-5.27400016784668,-7.881000518798828
1749920270174419000,8.5294189453125,-4.441050052642822,-5.070000171661377,-8.500950813293457
1749920270184432400,8.539432373046875,-5.193000316619873,-5.359950065612793,-9.574050903320312
1749920270194445600,8.549445556640626,-5.461050033569336,-6.174000263214111,-10.204050064086914
1749920270204458800,8.559458740234374,-4.9170002937316895,-6.832950115203857,-9.7339506149292
1749920270214472200,8.56947216796875,-4.132050037384033,-6.907050132751465,-8.635050773620605
1749920270224485600,8.579485595703124,-4.0410003662109375,-6.118950366973877,-7.9360504150390625
1749920270234498800,8.589498779296875,-4.522050380706787,-5.062950134277344,-7.6870503425598145
1749920270244512000,8.599511962890626,-4.741950035095215,-4.386000156402588,-7.242000579833984
1749920270254525400,8.609525390625,-4.513050079345703,-3.8710501194000244,-6.7510504722595215
1749920270264539000,8.619538818359375,-4.267950057983398,-3.1500000953674316,-6.688950538635254
1749920270274552000,8.629552001953124,-4.43595027923584,-2.3910000324249268,-7.192050457000732
1749920270284565200,8.639565185546875,-4.795050144195557,-2.140050172805786,-8.020050048828125
1749920270294578700,8.64957861328125,-5.020050048828125,-2.6449501514434814,-8.971050262451172
1749920270304592100,8.659592041015625,-4.813950061798096,-3.624000072479248,-9.631050109863281
1749920270314605300,8.669605224609375,-4.291950225830078,-4.471950054168701,-9.982950210571289
1749920270324618500,8.679618408203124,-3.9499502182006836,-5.049000263214111,-10.335000038146973
1749920270334632000,8.6896318359375,-3.967050075531006,-5.452950477600098,-10.807050704956055
1749920270344645400,8.699645263671876,-4.126950263977051,-5.623050212860107,-10.951050758361816
1749920270354658600,8.709658447265625,-4.3279500007629395,-5.430000305175781,-10.44105052947998
1749920270364672000,8.719672119140625,-4.462050437927246,-4.732950210571289,-9.628950119018555
1749920270374685200,8.729685302734374,-4.410000324249268,-3.7320001125335693,-9.166950225830078
1749920270384698400,8.739698486328125,-4.228050231933594,-2.748000144958496,-8.893950462341309
1749920270394711800,8.7497119140625,-3.7849502563476562,-1.9750500917434692,-8.563950538635254
1749920270404725200,8.759725341796875,-3.126000165939331,-1.4790000915527344,-8.074950218200684
1749920270414738700,8.76973876953125,-2.7049500942230225,-1.01895010471344,-7.771050453186035
1749920270424751900,8.779751953125,-2.599950075149536,-0.598050057888031,-7.90500020980835
1749920270434765000,8.78976513671875,-2.770050048828125,-0.43800002336502075,-8.439000129699707
1749920270444778500,8.799778564453124,-3.0349502563476562,-0.6820500493049622,-9.295950889587402
1749920270454791700,8.809791748046875,-3.3130502700805664,-1.1650500297546387,-10.273050308227539
1749920270464805000,8.81980517578125,-3.4590001106262207,-1.6540501117706299,-11.27595043182373
1749920270474818300,8.829818359375,-3.438000202178955,-2.152050018310547,-12.010951042175293
1749920270484831700,8.839831787109375,-3.507000207901001,-2.7049500942230225,-12.62700080871582
1749920270494845000,8.849844970703124,-3.687000274658203,-3.2940001487731934,-12.652950286865234
1749920270504858400,8.8598583984375,-4.366950035095215,-3.80400013923645,-11.391000747680664
1749920270514871600,8.86987158203125,-5.422050476074219,-4.003050327301025,-9.361050605773926
1749920270524885000,8.879885009765625,-5.913000106811523,-3.853950262069702,-7.7059502601623535
1749920270534898200,8.889898193359375,-5.401050090789795,-3.4420502185821533,-6.576000213623047
1749920270544911600,8.89991162109375,-4.537050247192383,-2.8939502239227295,-5.997000217437744
1749920270554925000,8.909925048828125,-4.129050254821777,-2.430000066757202,-5.772000312805176
1749920270564938200,8.919938232421876,-4.090950012207031,-2.0680501461029053,-5.704950332641602
1749920270574951400,8.929951416015625,-3.856950283050537,-1.8739501237869263,-5.542050361633301
1749920270584964600,8.939964599609375,-3.517050266265869,-1.8259501457214355,-5.6449503898620605
1749920270594978000,8.94997802734375,-3.2509500980377197,-1.9290001392364502,-6.081000328063965
1749920270604991500,8.959991455078125,-2.9059500694274902,-2.118000030517578,-6.367950439453125
1749920270615004700,8.970004638671876,-2.9850001335144043,-2.0749499797821045,-6.586050510406494
1749920270625018000,8.98001806640625,-3.4830002784729004,-1.7070001363754272,-7.003050327301025
1749920270635031300,8.99003125,-3.556950092315674,-1.1490000486373901,-7.206000328063965
1749920270645044700,9.000044677734374,-2.770050048828125,-0.6220500469207764,-6.979050159454346
1749920270655058000,9.010057861328125,-1.908000111579895,-0.10005000233650208,-6.655050277709961
1749920270665071400,9.0200712890625,-1.6990500688552856,0.4420500099658966,-6.466050148010254
1749920270675084500,9.03008447265625,-2.3460001945495605,0.8970000147819519,-6.841950416564941
1749920270685098000,9.040097900390625,-2.7619500160217285,1.0549499988555908,-7.363950252532959
1749920270695111400,9.050111328125,-2.628000020980835,0.7800000309944153,-7.2870001792907715
1749920270705124600,9.06012451171875,-3.3010501861572266,0.39705002307891846,-7.314000129699707
1749920270715137800,9.0701376953125,-4.3309502601623535,-0.031050002202391624,-7.4410505294799805
1749920270725151200,9.080151123046875,-4.671000003814697,-0.43800002336502075,-7.057950496673584
1749920270735164400,9.090164306640625,-4.812000274658203,-0.7849500179290771,-6.235950469970703
1749920270745177900,9.100177734375,-4.836000442504883,-0.9499500393867493,-5.464950084686279
1749920270755191000,9.11019091796875,-5.0370001792907715,-0.7200000286102295,-5.551950454711914
1749920270765204500,9.12020458984375,-5.521050453186035,-0.3079500198364258,-6.234000205993652
1749920270775217700,9.1302177734375,-5.26200008392334,-0.15300001204013824,-6.409050464630127
1749920270785231000,9.140231201171876,-4.683000087738037,-0.2050500065088272,-5.812950134277344
1749920270795244300,9.150244384765625,-4.2709503173828125,-0.15495000779628754,-5.476950168609619
1749920270805257500,9.160257568359375,-3.9190502166748047,0.06405000388622284,-5.752950191497803
1749920270815271200,9.170271240234374,-3.475950241088867,0.3349500298500061,-6.349050521850586
1749920270825284400,9.180284423828125,-3.121950149536133,0.5550000071525574,-6.859050273895264
1749920270835297500,9.190297607421876,-2.9250001907348633,0.7249500155448914,-7.153050422668457
1749920270845310700,9.200310791015625,-2.937000036239624,0.8329500555992126,-7.528950214385986
1749920270855324400,9.210324462890625,-2.9640002250671387,0.8110500574111938,-7.659000396728516
1749920270865337600,9.220337646484374,-3.061950206756592,0.8089500665664673,-7.407000541687012
1749920270875350800,9.230350830078125,-3.280050039291382,0.9640500545501709,-7.1170501708984375
1749920270885364000,9.240364013671876,-3.475950241088867,1.264050006866455,-7.086000442504883
1749920270895377400,9.25037744140625,-3.277050256729126,1.5340501070022583,-7.462050437927246
1749920270905390800,9.260390869140625,-2.820000171661377,1.5370501279830933,-7.735050201416016
1749920270915404000,9.270404052734374,-2.449050188064575,1.29705011844635,-7.927050590515137
1749920270925417200,9.280417236328125,-2.260050058364868,0.9019500613212585,-8.3100004196167
1749920270935430700,9.2904306640625,-2.2240500450134277,0.3660000264644623,-8.734050750732422
1749920270945444000,9.300444091796875,-2.25,-0.32295000553131104,-9.109050750732422
1749920270955457300,9.310457275390625,-2.269050121307373,-0.9760500192642212,-9.499950408935547
1749920270965470500,9.320470458984374,-2.299950122833252,-1.6320000886917114,-9.909000396728516
1749920270975484200,9.330484130859375,-2.4679501056671143,-2.2330501079559326,-10.4239501953125
1749920270985497300,9.340497314453126,-2.8129501342773438,-2.8650002479553223,-10.917000770568848
1749920270995510500,9.350510498046875,-2.977950096130371,-3.5239500999450684,-10.885950088500977
1749920271005524000,9.36052392578125,-3.0810000896453857,-3.9810001850128174,-10.540950775146484
1749920271015537200,9.370537109375,-3.0829501152038574,-4.170000076293945,-10.383000373840332
1749920271025550600,9.380550537109375,-2.908050060272217,-4.052999973297119,-9.979050636291504
1749920271035563800,9.390563720703126,-2.7499501705169678,-3.5239500999450684,-9.519000053405762
1749920271045577200,9.4005771484375,-2.7720000743865967,-2.7720000743865967,-9.022950172424316
1749920271055590400,9.41059033203125,-2.887050151824951,-2.118000030517578,-8.30505084991455
1749920271065603800,9.420603759765624,-2.8219501972198486,-1.7760001420974731,-7.489050388336182
1749920271075617000,9.430616943359375,-2.719050168991089,-1.6470000743865967,-7.015050411224365
1749920271085630200,9.440630126953126,-2.688000202178955,-1.683000087738037,-6.924000263214111
1749920271095643600,9.4506435546875,-2.620950222015381,-1.9560000896453857,-6.979050159454346
1749920271105656800,9.46065673828125,-2.638050079345703,-2.2740001678466797,-7.350000381469727
1749920271115670300,9.470670166015625,-2.710050106048584,-2.599950075149536,-7.881000518798828
1749920271125683700,9.48068359375,-2.9610002040863037,-3.06600022315979,-8.130000114440918
1749920271135697000,9.49069677734375,-3.1930501461029053,-3.634050130844116,-8.092050552368164
1749920271145710300,9.50071044921875,-3.1810500621795654,-4.146000385284424,-8.034000396728516
1749920271155723500,9.5107236328125,-3.2029502391815186,-4.540950298309326,-8.215950012207031
1749920271165736700,9.52073681640625,-3.366000175476074,-4.82895040512085,-8.628000259399414
1749920271175750100,9.530750244140625,-3.684000253677368,-5.032050132751465,-9.118950843811035
1749920271185763300,9.540763427734374,-3.9790501594543457,-5.169000148773193,-9.730050086975098
1749920271195776500,9.550776611328125,-4.180050373077393,-5.389050483703613,-10.243950843811035
1749920271205790000,9.5607900390625,-4.335000038146973,-5.668950080871582,-10.666050910949707
1749920271215803400,9.570803466796875,-4.441050052642822,-6.021000385284424,-10.927050590515137
1749920271225816600,9.580816650390625,-4.417050361633301,-6.294000148773193,-11.0149507522583
1749920271235829800,9.590829833984374,-4.369050025939941,-6.403950214385986,-11.068050384521484
1749920271245843000,9.600843017578125,-4.41195011138916,-6.303000450134277,-10.942950248718262
1749920271255856400,9.6108564453125,-4.503000259399414,-6.028050422668457,-10.534050941467285
1749920271265869800,9.620869873046875,-4.4239501953125,-5.748000144958496,-9.805950164794922
1749920271275883000,9.630883056640625,-4.1610002517700195,-5.473050117492676,-8.949000358581543
1749920271285896200,9.640896240234374,-3.696000099182129,-5.068050384521484,-8.307000160217285
1749920271295910000,9.650909912109375,-3.2320501804351807,-4.60605001449585,-7.90500020980835
1749920271305923000,9.660923095703126,-2.956050157546997,-4.197000026702881,-7.642050266265869
1749920271315936300,9.670936279296875,-2.86995005607605,-3.9090001583099365,-7.467000484466553
1749920271325949700,9.68094970703125,-2.8560001850128174,-3.7320001125335693,-7.326000213623047
1749920271335963100,9.690963134765624,-2.8219501972198486,-3.6319501399993896,-7.327950477600098
1749920271345976300,9.700976318359375,-2.8320000171661377,-3.5689501762390137,-7.73805046081543
1749920271355989500,9.710989501953126,-2.722050189971924,-3.7219502925872803,-8.414999961853027
1749920271366003000,9.7210029296875,-2.640000104904175,-4.2370500564575195,-9.094950675964355
1749920271376016400,9.731016357421876,-2.7720000743865967,-5.00100040435791,-9.62700080871582
1749920271386029600,9.741029541015624,-2.989950180053711,-5.781000137329102,-9.71505069732666
1749920271396042800,9.751042724609375,-3.0810000896453857,-6.145050525665283,-9.342000007629395
1749920271406056400,9.761056396484374,-3.1960501670837402,-5.85105037689209,-8.892000198364258
1749920271416069600,9.771069580078125,-3.346950054168701,-5.178000450134277,-8.515950202941895
1749920271426082800,9.781082763671876,-3.6940500736236572,-4.711050033569336,-8.25195026397705
1749920271436096000,9.791095947265624,-4.006950378417969,-4.777950286865234,-8.322000503540039
1749920271446109400,9.801109375,-4.039050102233887,-5.563950061798096,-8.785950660705566
1749920271456123000,9.811122802734374,-4.1509504318237305,-6.919050216674805,-9.277050018310547
1749920271466136000,9.821135986328125,-4.32105016708374,-8.353050231933594,-9.82800006866455
1749920271476149200,9.831149169921876,-4.036050319671631,-9.567000389099121,-10.062000274658203
1749920271486162700,9.84116259765625,-3.390000104904175,-10.294950485229492,-9.69795036315918
1749920271496176000,9.851176025390625,-2.986950159072876,-10.15095043182373,-8.713950157165527
1749920271506189300,9.861189208984374,-3.3319501876831055,-8.932050704956055,-7.314000129699707
1749920271516202500,9.871202392578125,-4.060050010681152,-7.219950199127197,-5.947050094604492
1749920271526216000,9.8812158203125,-4.363950252532959,-5.85105037689209,-4.957950115203857
1749920271536229000,9.89122900390625,-4.285050392150879,-5.323950290679932,-4.603950023651123
1749920271546242600,9.90124267578125,-4.303950309753418,-5.530050277709961,-4.9170002937316895
1749920271556255700,9.911255859375,-4.314000129699707,-5.884050369262695,-5.904000282287598
1749920271566269000,9.92126904296875,-3.745950222015381,-6.313050270080566,-7.185000419616699
1749920271576282400,9.931282470703126,-2.6740500926971436,-6.670050144195557,-8.236050605773926
1749920271586295800,9.9412958984375,-1.6750500202178955,-6.6910505294799805,-8.773950576782227
1749920271596309000,9.95130908203125,-1.1100000143051147,-6.211950302124023,-8.704950332641602
1749920271606322200,9.961322265625,-0.8830500245094299,-5.319000244140625,-8.329050064086914
1749920271616335600,9.971335693359375,-1.0960500240325928,-4.495950222015381,-7.7470502853393555
1749920271626348800,9.981348876953126,-1.6300500631332397,-3.9190502166748047,-7.495950222015381
1749920271636362200,9.9913623046875,-2.26200008392334,-3.744000196456909,-7.579950332641602
1749920271646375400,10.00137548828125,-2.9320502281188965,-3.9400501251220703,-7.654050350189209
1749920271656388600,10.011388671875,-3.496950149536133,-4.354950428009033,-7.777950286865234
1749920271666402000,10.021402099609375,-3.748950242996216,-4.89300012588501,-7.885950565338135
1749920271676415500,10.03141552734375,-3.8400001525878906,-5.398050308227539,-8.122950553894043
1749920271686428700,10.0414287109375,-3.5089502334594727,-5.764950275421143,-8.461050033569336
1749920271696441900,10.05144189453125,-2.8030500411987305,-5.9659504890441895,-8.85300064086914
1749920271706455300,10.061455322265624,-2.4100501537323,-5.836950302124023,-9.574050903320312
1749920271716468700,10.07146875,-2.6520001888275146,-5.331000328063965,-10.455000877380371
1749920271726482000,10.08148193359375,-3.2220001220703125,-4.900050163269043,-10.498050689697266
1749920271736495000,10.0914951171875,-3.8710501194000244,-4.873950004577637,-9.877950668334961
1749920271746508300,10.10150830078125,-4.44795036315918,-5.1060004234313965,-9.022950172424316
1749920271756522000,10.11152197265625,-4.594050407409668,-5.365050315856934,-8.461050033569336
1749920271766535200,10.12153515625,-4.39995002746582,-5.6569504737854,-8.203949928283691
1749920271776548400,10.13154833984375,-3.9790501594543457,-5.845950126647949,-8.317049980163574
1749920271786561500,10.1415615234375,-3.6630001068115234,-6.03000020980835,-8.418000221252441
1749920271796575200,10.1515751953125,-3.555000066757202,-6.070950508117676,-8.689949989318848
1749920271806588400,10.16158837890625,-3.5910000801086426,-5.901000499725342,-9.217050552368164
1749920271816601600,10.1716015625,-3.595950126647949,-5.719050407409668,-9.67905044555664
1749920271826614800,10.18161474609375,-3.574050188064575,-5.602050304412842,-9.85200023651123
1749920271836628200,10.191628173828125,-3.5500502586364746,-5.487000465393066,-9.720000267028809
1749920271846641700,10.2016416015625,-3.624000072479248,-5.355000019073486,-9.502050399780273
1749920271856654800,10.21165478515625,-3.793950080871582,-5.185050010681152,-9.318000793457031
1749920271866668300,10.221668212890625,-4.050000190734863,-4.879050254821777,-9.199950218200684
1749920271876681500,10.231681396484374,-4.299000263214111,-4.417050361633301,-9.175950050354004
1749920271886694700,10.241694580078125,-4.491000175476074,-3.8209502696990967,-9.214950561523438
1749920271896708000,10.2517080078125,-4.483950138092041,-3.3130502700805664,-9.190950393676758
1749920271906721300,10.26172119140625,-4.057950019836426,-3.0859501361846924,-8.88900089263916
1749920271916734500,10.271734375,-3.3319501876831055,-3.0810000896453857,-8.377050399780273
1749920271926748200,10.281748046875,-2.6620500087738037,-3.129000186920166,-7.927050590515137
1749920271936761000,10.291760986328125,-2.3149502277374268,-3.295950174331665,-7.764000415802002
1749920271946774500,10.3017744140625,-2.3770501613616943,-3.559950113296509,-7.9200005531311035
1749920271956787700,10.31178759765625,-2.8560001850128174,-3.793950080871582,-8.3860502243042
1749920271966801200,10.32180126953125,-3.450000047683716,-3.936000108718872,-9.018000602722168
1749920271976814600,10.331814697265624,-3.8590502738952637,-3.8830502033233643,-9.459000587463379
1749920271986827800,10.341827880859375,-3.9019501209259033,-3.5689501762390137,-9.457050323486328
1749920271996841000,10.351841064453126,-3.718050241470337,-3.016050100326538,-9.046950340270996
1749920272006854100,10.361854248046875,-3.5689501762390137,-2.4820501804351807,-8.626049995422363
1749920272016867600,10.37186767578125,-3.634050130844116,-1.9200000762939453,-8.479949951171875
1749920272026881000,10.381881103515624,-3.8449501991271973,-1.3930500745773315,-8.55405044555664
1749920272036894200,10.391894287109375,-3.90405011177063,-0.9480000734329224,-8.77695083618164
1749920272046907400,10.401907470703126,-3.736950159072876,-0.6840000152587891,-8.995050430297852
1749920272056920600,10.411920654296875,-3.450000047683716,-0.6049500107765198,-9.081000328063965
1749920272066934000,10.42193408203125,-3.0330002307891846,-0.7270500063896179,-8.761950492858887
1749920272076947500,10.431947509765624,-2.578050136566162,-0.9360000491142273,-8.020050048828125
1749920272086960600,10.441960693359375,-2.3310000896453857,-1.0890001058578491,-7.5169501304626465
1749920272096973800,10.451973876953126,-2.5729501247406006,-1.2229501008987427,-7.417050361633301
1749920272106987300,10.4619873046875,-3.019050121307373,-1.426050066947937,-7.351950168609619
1749920272117000700,10.472000732421876,-2.9730000495910645,-1.5610500574111938,-7.1610002517700195
1749920272127014000,10.482013916015624,-2.5420501232147217,-1.5319501161575317,-7.120050430297852
1749920272137027000,10.492027099609375,-2.239950180053711,-1.3999500274658203,-7.228050231933594
1749920272147040300,10.502040283203126,-2.3749501705169678,-1.0909500122070312,-7.291950225830078
1749920272157053700,10.5120537109375,-2.3959500789642334,-0.6960000395774841,-7.228050231933594
1749920272167067100,10.522067138671876,-1.8889501094818115,-0.2580000162124634,-7.036050319671631
1749920272177080300,10.532080322265625,-1.4719500541687012,0.1980000138282776,-6.79395055770874
1749920272187093500,10.542093505859375,-1.3810501098632812,0.7150500416755676,-6.390000343322754
1749920272197107000,10.55210693359375,-1.5220500230789185,1.194000005722046,-5.6260504722595215
1749920272207120100,10.5621201171875,-1.908000111579895,1.7190001010894775,-5.278950214385986
1749920272217133600,10.572133544921876,-2.7310500144958496,2.1660001277923584,-5.772000312805176
1749920272227146800,10.582146728515625,-3.6670501232147217,2.142000198364258,-6.330000400543213
1749920272237160000,10.592159912109375,-3.9930002689361572,1.5919500589370728,-6.463950157165527
1749920272247173400,10.60217333984375,-3.7300500869750977,0.9550500512123108,-6.531000137329102
1749920272257186600,10.6121865234375,-3.4300501346588135,0.4230000078678131,-6.736950397491455
1749920272267200000,10.622199951171876,-3.129000186920166,0.0019500000635161996,-7.213050365447998
1749920272277213200,10.632213134765625,-2.737950086593628,-0.28200000524520874,-7.495950222015381
1749920272297239800,10.65223974609375,-2.48895001411438,-0.559950053691864,-7.327950477600098
1749920272307253200,10.662253173828125,-2.5009500980377197,-0.6630000472068787,-6.946950435638428
1749920272317266400,10.672266357421876,-2.5729501247406006,-0.6700500249862671,-6.508950233459473
1749920272327279600,10.682279541015625,-2.647050142288208,-0.49500003457069397,-6.435000419616699
1749920272337293000,10.69229296875,-2.6430001258850098,-0.22005000710487366,-6.484950542449951
1749920272347306200,10.70230615234375,-2.6830501556396484,0.07095000147819519,-6.591000080108643
1749920272357319400,10.7123193359375,-2.668950080871582,0.34905001521110535,-7.045950412750244
1749920272367332900,10.722332763671876,-2.680950164794922,0.6510000228881836,-7.735050201416016
1749920272377346000,10.732345947265625,-2.76705002784729,0.8329500555992126,-8.458050727844238
1749920272387359500,10.742359375,-3.009000062942505,0.6319500207901001,-9.018000602722168
1749920272397372700,10.75237255859375,-3.544950246810913,0.07095000147819519,-9.27495002746582
1749920272407385900,10.7623857421875,-3.787050247192383,-0.6360000371932983,-9.181050300598145
1749920272417399300,10.7723994140625,-3.7420501708984375,-1.3039500713348389,-9.085050582885742
1749920272427412500,10.78241259765625,-3.5310001373291016,-1.8769501447677612,-9.028050422668457
1749920272437426000,10.792426025390625,-3.327000141143799,-2.299950122833252,-9.10004997253418
1749920272447439000,10.802439208984374,-2.937000036239624,-2.590050220489502,-9.31095027923584
1749920272457452500,10.81245263671875,-2.4970500469207764,-2.722050189971924,-9.301050186157227
1749920272467465700,10.8224658203125,-2.430000066757202,-2.748000144958496,-9.262950897216797
1749920272477479200,10.832479248046875,-2.4820501804351807,-2.707050085067749,-9.409049987792969
1749920272487492400,10.842492431640625,-2.4870002269744873,-2.491950035095215,-9.708000183105469
1749920272497505500,10.852505615234374,-2.63100004196167,-2.1379501819610596,-9.937950134277344
1749920272507518700,10.862518798828125,-2.748000144958496,-1.810050129890442,-10.045950889587402
1749920272517532400,10.872532470703124,-2.7910501956939697,-1.5559500455856323,-10.12695026397705
1749920272527545600,10.882545654296875,-2.650050163269043,-1.5049500465393066,-10.113000869750977
1749920272537558800,10.892558837890626,-2.149049997329712,-1.7640000581741333,-9.60300064086914
1749920272547572000,10.902572021484374,-1.752000093460083,-2.0749499797821045,-9.054000854492188
1749920272557585400,10.91258544921875,-1.603950023651123,-2.1850500106811523,-8.698050498962402
1749920272567598600,10.9225986328125,-1.5580500364303589,-2.1760501861572266,-8.209050178527832
1749920272577612000,10.932612060546875,-1.540950059890747,-2.118000030517578,-7.587000370025635
1749920272587625200,10.942625244140626,-1.5490500926971436,-2.013000011444092,-7.122000217437744
1749920272597638400,10.952638427734374,-1.5370501279830933,-1.960050106048584,-6.970950126647949
1749920272607651800,10.96265185546875,-1.6870501041412354,-2.1229500770568848,-7.053000450134277
1749920272617665300,10.972665283203124,-2.0029501914978027,-2.5950000286102295,-7.158000469207764
1749920272627678500,10.982678466796875,-2.230950117111206,-3.3010501861572266,-7.3999505043029785
1749920272637691600,10.992691650390626,-2.3239500522613525,-4.069950103759766,-7.9770002365112305
1749920272647704800,11.002704833984374,-2.4750001430511475,-4.833000183105469,-8.836050033569336
1749920272657718300,11.01271826171875,-2.7499501705169678,-5.571000099182129,-9.68595027923584
1749920272667731500,11.0227314453125,-2.8819501399993896,-6.256050109863281,-10.608000755310059
1749920272677745000,11.032744873046875,-3.129000186920166,-6.835050106048584,-11.85300064086914
1749920272687758000,11.042758056640626,-3.526050090789795,-7.375950336456299,-13.230000495910645
1749920272697771300,11.052771240234375,-3.9120001792907715,-7.963050365447998,-14.271000862121582
1749920272707784700,11.06278466796875,-4.503000259399414,-8.595000267028809,-14.88705062866211
1749920272717798000,11.0727978515625,-5.1660003662109375,-9.046950340270996,-14.86305046081543
1749920272727811000,11.08281103515625,-5.647050380706787,-8.892000198364258,-13.5600004196167
1749920272737824500,11.092824462890626,-5.700000286102295,-7.795050144195557,-11.680950164794922
1749920272747837400,11.10283740234375,-4.849950313568115,-6.118950366973877,-10.038000106811523
1749920272757851100,11.11285107421875,-3.624000072479248,-4.350000381469727,-8.491950035095215
1749920272767864300,11.1228642578125,-2.9010000228881836,-2.889000177383423,-7.258950233459473
1749920272777877500,11.13287744140625,-2.845950126647949,-1.6870501041412354,-6.2749505043029785
1749920272787890700,11.142890625,-2.6760001182556152,-0.8830500245094299,-5.443950176239014
1749920272797904100,11.152904052734375,-2.4130501747131348,-0.7609500288963318,-5.074950218200684
1749920272807917600,11.16291748046875,-2.152050018310547,-1.4310001134872437,-5.215950012207031
1749920272817930800,11.1729306640625,-1.90500009059906,-2.638050079345703,-5.758050441741943
1749920272827944000,11.18294384765625,-1.7880001068115234,-4.074000358581543,-6.6220502853393555
1749920272837957000,11.19295703125,-1.9290001392364502,-5.7430500984191895,-7.837950229644775
1749920272847970600,11.202970458984375,-2.299950122833252,-7.5169501304626465,-9.325050354003906
1749920272857983700,11.212983642578125,-2.808000087738037,-9.349050521850586,-10.912050247192383
1749920272867997200,11.2229970703125,-3.406050205230713,-11.002950668334961,-12.277050971984863
1749920272878010400,11.23301025390625,-3.936000108718872,-12.315000534057617,-12.847050666809082
1749920272888023600,11.2430234375,-4.1610002517700195,-13.009950637817383,-13.297050476074219
1749920272898037000,11.253037109375,-4.234950065612793,-12.676950454711914,-13.347001075744629
1749920272908050200,11.26305029296875,-4.090950012207031,-11.04900074005127,-11.973000526428223
1749920272918063400,11.2730634765625,-3.6510002613067627,-9.232050895690918,-9.895050048828125
1749920272928076800,11.283076904296875,-3.2700002193450928,-7.756950378417969,-8.381999969482422
1749920272938090000,11.293090087890626,-3.007050037384033,-6.628950119018555,-7.033950328826904
1749920272948103200,11.303103271484375,-2.748000144958496,-5.761950492858887,-5.923050403594971
1749920272958116600,11.31311669921875,-2.1690001487731934,-5.068050384521484,-5.002950191497803
1749920272968129800,11.3231298828125,-1.4980500936508179,-4.489050388336182,-4.318950176239014
1749920272978143000,11.33314306640625,-1.0309500694274902,-4.012050151824951,-3.957000255584717
1749920272988156400,11.343156494140626,-0.6360000371932983,-3.687000274658203,-3.8520002365112305
1749920272998169900,11.353169921875,-0.37995001673698425,-3.5620501041412354,-3.9810001850128174
1749920273008183000,11.36318310546875,-0.23400001227855682,-3.61995005607605,-4.254000186920166
1749920273018196200,11.3731962890625,-0.28905001282691956,-3.655050277709961,-4.89300012588501
1749920273028209700,11.383209716796875,-0.5290500521659851,-3.576000213623047,-5.869950294494629
1749920273038223000,11.39322314453125,-0.8760000467300415,-3.454050064086914,-7.015050411224365
1749920273048236000,11.403236083984375,-1.3830000162124634,-3.2719502449035645,-7.969950199127197
1749920273058249500,11.41324951171875,-2.158950090408325,-3.076050043106079,-8.551950454711914
1749920273068263000,11.423262939453124,-3.0019500255584717,-2.998950242996216,-8.713950157165527
1749920273078276000,11.433276123046875,-3.598050117492676,-3.1620001792907715,-8.58495044708252
1749920273088289300,11.443289306640626,-3.873000144958496,-3.4420502185821533,-8.575950622558594
1749920273098302500,11.453302490234375,-3.778050184249878,-3.80400013923645,-8.949000358581543
1749920273108316000,11.46331591796875,-3.3109500408172607,-4.314000129699707,-9.70995044708252
1749920273118329300,11.473329345703124,-2.9710500240325928,-5.013000011444092,-10.347000122070312
1749920273128342500,11.483342529296875,-3.1020002365112305,-5.647050380706787,-10.813950538635254
1749920273138355700,11.493355712890626,-3.4230000972747803,-5.920050144195557,-11.161050796508789
1749920273148369000,11.503368896484375,-3.7110002040863037,-6.009000301361084,-11.416950225830078
1749920273158382300,11.51338232421875,-4.2370500564575195,-5.710050106048584,-12.220050811767578
1749920273168395500,11.5233955078125,-4.644000053405762,-5.523000240325928,-12.945000648498535
1749920273178408700,11.53340869140625,-4.350000381469727,-5.64300012588501,-13.374000549316406
1749920273188422100,11.543422119140626,-3.574050188064575,-5.809950351715088,-13.399950981140137
1749920273198435300,11.553435302734375,-3.0400500297546387,-6.303000450134277,-12.378000259399414
1749920273208448800,11.56344873046875,-2.9920501708984375,-6.736950397491455,-11.152050971984863
1749920273218462000,11.5734619140625,-3.325050115585327,-6.8610005378723145,-10.018950462341309
1749920273228475100,11.58347509765625,-3.205050230026245,-6.796950340270996,-8.962950706481934
1749920273238488300,11.59348828125,-2.725950241088867,-6.435000419616699,-8.248050689697266
1749920273248501800,11.603501708984375,-2.073000192642212,-5.784000396728516,-7.833000183105469
1749920273258515200,11.61351513671875,-1.6200001239776611,-4.8259501457214355,-7.735050201416016
1749920273268528400,11.6235283203125,-1.3189500570297241,-3.8779501914978027,-7.663050174713135
1749920273278541600,11.63354150390625,-1.0960500240325928,-3.037950038909912,-7.570050239562988
1749920273288555000,11.643554931640624,-1.0069500207901,-2.3650500774383545,-7.555950164794922
1749920273298568000,11.65356787109375,-1.01895010471344,-1.9560000896453857,-7.606050491333008
1749920273308581400,11.663581298828126,-1.120050072669983,-1.8169500827789307,-7.716000556945801
1749920273318594600,11.673594482421874,-1.4029500484466553,-1.8600001335144043,-7.897950172424316
1749920273328607700,11.683607666015625,-1.8739501237869263,-2.0179500579833984,-8.152050018310547
1749920273338621200,11.69362109375,-2.4750001430511475,-2.3149502277374268,-8.544000625610352
1749920273348634400,11.70363427734375,-3.100050210952759,-2.7120001316070557,-9.109050750732422
1749920273358647600,11.7136474609375,-3.6030001640319824,-3.06600022315979,-9.756000518798828
1749920273368661000,11.723660888671875,-3.8419501781463623,-3.189000129699707,-10.077000617980957
1749920273378674200,11.733674072265625,-3.5239500999450684,-2.9850001335144043,-10.681950569152832
1749920273388687400,11.743687255859374,-3.037950038909912,-2.67900013923645,-11.041950225830078
1749920273398700500,11.753700439453125,-2.7720000743865967,-2.367000102996826,-11.094000816345215
1749920273408714000,11.7637138671875,-2.659050226211548,-2.1760501861572266,-11.185050964355469
1749920273418727400,11.7737275390625,-2.6950502395629883,-2.1450002193450928,-11.041950225830078
1749920273428740600,11.78374072265625,-2.9230501651763916,-2.1660001277923584,-10.576950073242188
1749920273438753800,11.79375390625,-3.28695011138916,-2.1780002117156982,-10.01205062866211
1749920273448767000,11.80376708984375,-3.5020501613616943,-2.158950090408325,-9.580950736999512
1749920273458780400,11.813780517578126,-3.604950189590454,-2.1280500888824463,-9.331950187683105
1749920273468793600,11.823793701171875,-3.643050193786621,-2.1610500812530518,-9.105000495910645
1749920273478806800,11.833806884765625,-3.394050121307373,-2.2669501304626465,-8.563950538635254
1749920273488820000,11.843820068359374,-2.8750500679016113,-2.2860000133514404,-7.659000396728516
1749920273498833400,11.85383349609375,-2.1760501861572266,-2.1640501022338867,-6.604950428009033
1749920273508846600,11.8638466796875,-1.4929500818252563,-1.7830500602722168,-5.6569504737854
1749920273518860000,11.873860107421875,-0.9880500435829163,-1.3189500570297241,-4.888050079345703
1749920273528873200,11.883873291015625,-0.6630000472068787,-0.9190500378608704,-4.201050281524658
1749920273538886400,11.893886474609374,-0.6240000128746033,-0.4620000123977661,-3.6750001907348633
1749920273548899800,11.90389990234375,-0.700950026512146,0.16905000805854797,-3.907050132751465
1749920273558913000,11.9139130859375,-1.0669500827789307,0.8760000467300415,-4.491000175476074
1749920273568926200,11.92392626953125,-2.0149500370025635,1.64205002784729,-4.903050422668457
1749920273578939600,11.933939697265625,-2.91795015335083,2.4060001373291016,-5.487000465393066
1749920273588953000,11.943953125,-3.6720001697540283,2.9830501079559326,-6.505050182342529
1749920273598966300,11.95396630859375,-4.468950271606445,2.9920501708984375,-7.9770002365112305
1749920273608979500,11.9639794921875,-4.824000358581543,2.073000192642212,-9.519000053405762
1749920273618992600,11.97399267578125,-4.603950023651123,0.4519500136375427,-10.23705005645752
1749920273629005800,11.984005859375,-4.185000419616699,-1.290000081062317,-9.676950454711914
1749920273639019300,11.994019287109374,-3.8610002994537354,-2.7460501194000244,-9.088050842285156
1749920273649032400,12.004032470703125,-3.7920002937316895,-3.982950210571289,-8.245050430297852
1749920273659045600,12.014045654296876,-3.4620001316070557,-4.666050434112549,-7.077000141143799
1749920273669058800,12.024058837890625,-2.8410000801086426,-4.515000343322754,-5.6860504150390625
1749920273679072300,12.034072265625,-2.4820501804351807,-3.624000072479248,-4.630050182342529
1749920273689085700,12.044085693359374,-2.5470001697540283,-2.287950038909912,-4.3470001220703125
1749920273699099000,12.054098876953125,-2.5950000286102295,-1.0699501037597656,-4.431000232696533
1749920273709112000,12.064112060546876,-2.449050188064575,-0.34200000762939453,-4.507950305938721
1749920273719125200,12.074125244140625,-2.3310000896453857,-0.09795000404119492,-4.831050395965576
1749920273729138400,12.084138427734375,-2.2240500450134277,-0.24795001745224,-5.389050483703613
1749920273739152000,12.09415185546875,-2.287950038909912,-0.6559500098228455,-5.728950500488281
1749920273749165300,12.104165283203125,-2.4250500202178955,-1.1440500020980835,-5.893950462341309
1749920273759178200,12.11417822265625,-2.4370501041412354,-1.5319501161575317,-6.106950283050537
1749920273769191700,12.124191650390625,-2.5639500617980957,-1.7209501266479492,-6.547950267791748
1749920273779204900,12.134204833984375,-2.5729501247406006,-1.8000000715255737,-6.982950210571289
1749920273789218000,12.144218017578124,-2.82705020904541,-1.7740501165390015,-7.35705041885376
1749920273799231200,12.154231201171875,-3.1549501419067383,-1.6990500688552856,-7.82895040512085
1749920273809244700,12.16424462890625,-3.1650002002716064,-1.636950135231018,-8.221050262451172
1749920273819257900,12.1742578125,-2.9160001277923584,-1.5630000829696655,-8.347949981689453
1749920273829271000,12.18427099609375,-2.848950147628784,-1.527000069618225,-8.379000663757324
1749920273839284200,12.1942841796875,-2.7169501781463623,-1.5340501070022583,-8.3860502243042
1749920273849297700,12.204297607421875,-2.3149502277374268,-1.5150001049041748,-8.353050231933594
1749920273859311000,12.21431103515625,-2.1259500980377197,-1.4029500484466553,-8.56605052947998
1749920273869324300,12.22432421875,-2.0899500846862793,-1.290000081062317,-9.016050338745117
1749920273879337500,12.23433740234375,-2.140050172805786,-1.2109500169754028,-9.598050117492676
1749920273889350700,12.2443505859375,-2.2240500450134277,-1.2829500436782837,-10.267950057983398
1749920273899364000,12.254364013671875,-2.2450501918792725,-1.6060501337051392,-10.756950378417969
1749920273909377300,12.264377197265626,-2.2519500255584717,-2.0940001010894775,-10.903050422668457
1749920273919390500,12.274390380859375,-2.311950206756592,-2.668950080871582,-10.74000072479248
1749920273929404000,12.28440380859375,-2.152050018310547,-3.2130000591278076,-10.387950897216797
1749920273939417000,12.2944169921875,-1.9650001525878906,-3.6940500736236572,-10.093050003051758
1749920273949430300,12.30443017578125,-1.951050043106079,-4.077000141143799,-10.017000198364258
1749920273959443700,12.314443603515626,-1.9390500783920288,-4.374000072479248,-10.021950721740723
1749920273969457000,12.324456787109375,-2.0350501537323,-4.680000305175781,-9.919050216674805
1749920273979470000,12.334469970703125,-2.118000030517578,-4.990950107574463,-9.757950782775879
1749920273989483300,12.344483154296874,-2.142000198364258,-5.260050296783447,-9.745950698852539
1749920273999496700,12.35449658203125,-2.158950090408325,-5.4559502601623535,-10.01400089263916
1749920274009510000,12.364510009765626,-2.281050205230713,-5.566050052642822,-10.342050552368164
1749920274019523000,12.374523193359375,-2.5489501953125,-5.668950080871582,-10.531950950622559
1749920274029536300,12.384536376953125,-2.680950164794922,-5.712000370025635,-10.551000595092773
1749920274039549400,12.394549560546874,-2.6449501514434814,-5.623050212860107,-10.492950439453125
1749920274049563000,12.40456298828125,-2.650050163269043,-5.4559502601623535,-10.420950889587402
1749920274059576000,12.414576171875,-2.6550002098083496,-5.194950103759766,-10.270950317382812
1749920274069589200,12.42458935546875,-2.6950502395629883,-4.945950031280518,-10.054950714111328
1749920274079602400,12.4346025390625,-2.809950113296509,-4.777950286865234,-9.825000762939453
1749920274089616000,12.444615966796874,-2.989950180053711,-4.759050369262695,-9.624000549316406
1749920274099629000,12.454629150390625,-3.078000068664551,-4.860000133514404,-9.354000091552734
1749920274109642200,12.464642333984376,-3.0040502548217773,-5.017950057983398,-9.10200023651123
1749920274119655400,12.474655517578125,-2.8939502239227295,-5.122950077056885,-8.893950462341309
1749920274129668900,12.4846689453125,-2.8060500621795654,-5.142000198364258,-8.737950325012207
1749920274139682000,12.49468212890625,-2.688000202178955,-5.118000030517578,-8.57295036315918
1749920274149695200,12.5046953125,-2.599950075149536,-5.149050235748291,-8.418000221252441
1749920274159708400,12.51470849609375,-2.608950138092041,-5.2260003089904785,-8.427000045776367
1749920274169721600,12.5247216796875,-2.7169501781463623,-5.3580002784729,-8.494050025939941
1749920274179734800,12.53473486328125,-2.809950113296509,-5.487000465393066,-8.527950286865234
1749920274189748200,12.544748291015624,-2.9059500694274902,-5.671050071716309,-8.491950035095215
1749920274199761400,12.554761474609375,-3.0520501136779785,-5.937000274658203,-8.36205005645752
1749920274209774600,12.564774658203126,-3.1600501537323,-6.223950386047363,-8.271000862121582
1749920274219787800,12.574787841796875,-3.2340002059936523,-6.586050510406494,-8.224050521850586
1749920274229801000,12.584801025390625,-3.238950252532959,-6.969000339508057,-8.334000587463379
1749920274239814700,12.594814697265624,-3.2820000648498535,-7.338000297546387,-8.692950248718262
1749920274249827600,12.60482763671875,-3.3130502700805664,-7.599000453948975,-9.142950057983398
1749920274259841000,12.614841064453126,-3.4260001182556152,-7.732950210571289,-9.592950820922852
1749920274269854200,12.624854248046875,-3.699000120162964,-7.672950267791748,-9.643050193786621
1749920274279867400,12.634867431640625,-3.970950126647949,-7.35705041885376,-9.394050598144531
1749920274289880800,12.644880859375,-3.775050163269043,-6.732000350952148,-9.18600082397461
1749920274299894000,12.65489404296875,-3.265050172805786,-5.937000274658203,-8.88705062866211
1749920274309907500,12.664907470703126,-2.8819501399993896,-5.170950412750244,-8.434050559997559
1749920274319920600,12.674920654296875,-2.728950023651123,-4.501049995422363,-7.945950508117676
1749920274329933800,12.684933837890625,-2.6670000553131104,-3.9880502223968506,-7.4410505294799805
1749920274339947300,12.694947265625,-2.6830501556396484,-3.684000253677368,-7.134000301361084
1749920274349960700,12.704960693359375,-2.820000171661377,-3.7110002040863037,-7.189050197601318
1749920274359974000,12.714973876953126,-2.9110500812530518,-4.165050029754639,-7.395000457763672
1749920274369987000,12.724987060546875,-3.1309502124786377,-4.809000015258789,-7.756950378417969
1749920274380000300,12.735000244140625,-3.547950267791748,-5.338950157165527,-8.185050010681152
1749920274390013700,12.745013671875,-3.7920002937316895,-5.602050304412842,-8.518050193786621
1749920274400027000,12.75502685546875,-3.5190000534057617,-5.5159502029418945,-8.880000114440918
1749920274410040000,12.7650400390625,-2.937000036239624,-5.130000114440918,-9.415950775146484
1749920274420053200,12.77505322265625,-2.2290000915527344,-4.666050434112549,-10.13895034790039
1749920274430066700,12.785066650390625,-1.9440001249313354,-4.2970499992370605,-10.789950370788574
1749920274440080000,12.795079833984374,-1.9870500564575195,-4.074000358581543,-11.07705020904541
1749920274450093000,12.805093017578125,-2.2170000076293945,-4.036050319671631,-10.927050590515137
1749920274460106200,12.815106201171876,-2.63100004196167,-4.093950271606445,-10.551000595092773
1749920274470119400,12.825119384765625,-2.9010000228881836,-4.134000301361084,-10.13700008392334
