time,seconds_elapsed,z,y,x
1749920261733175800,0.08817578125,1.9634599685668945,-0.5955129861831665,0.4780150055885315
1749920261743189000,0.09818896484375,1.8889729976654053,0.02962700091302395,0.2914319932460785
1749920261753202400,0.108202392578125,0.6200910210609436,1.7249250411987305,0.1460600048303604
1749920261763215600,0.118215576171875,-0.5495889782905579,2.598875045776367,1.2952430248260498
1749920261773229000,0.12822900390625,-0.45614299178123474,2.0570731163024902,1.0891859531402588
1749920261783242200,0.1382421875,-0.41254299879074097,1.5913259983062744,0.9356409907341003
1749920261793255700,0.148255615234375,-0.4099059998989105,1.1892319917678833,0.7933319807052612
1749920261803268900,0.158268798828125,-0.3876839876174927,0.8378689885139465,0.660522997379303
1749920261813282300,0.1682822265625,-0.32847100496292114,0.5448390245437622,0.544634997844696
1749920261823295500,0.17829541015625,-0.24068500101566315,0.30141299962997437,0.4378780126571655
1749920261833309000,0.188308837890625,-0.170074000954628,0.09952200204133987,0.34564200043678284
1749920261843322000,0.198322021484375,-0.1357399970293045,-0.05618099868297577,0.2811740040779114
1749920261853335600,0.20833544921875,-0.12895700335502625,-0.16580399870872498,0.24121999740600586
1749920261863348700,0.2183486328125,-0.12953400611877441,-0.23888200521469116,0.21532200276851654
1749920261873362200,0.228362060546875,-0.1212489977478981,-0.2919810116291046,0.18879300355911255
1749920261883375400,0.238375244140625,-0.10223499685525894,-0.34180301427841187,0.1517370045185089
1749920261893388800,0.248388916015625,-0.09896200150251389,-0.38817301392555237,0.10172499716281891
1749920261903402000,0.258402099609375,-0.11096400022506714,-0.42430999875068665,0.05482000112533569
1749920261913415200,0.268415283203125,-0.13710400462150574,-0.4439629912376404,0.010847999714314938
1749920261923428600,0.2784287109375,-0.1719300001859665,-0.4430220127105713,-0.015325999818742275
1749920261933442000,0.288442138671875,-0.2185640037059784,-0.420305997133255,-0.004408000037074089
1749920261943455200,0.298455322265625,-0.2578510046005249,-0.3672739863395691,0.09792300313711166
1749920261953468700,0.30846875,-0.28219300508499146,-0.3014799952507019,0.24803900718688965
1749920261963481900,0.31848193359375,-0.2846840023994446,-0.25293201208114624,0.34763801097869873
1749920261973495300,0.328495361328125,-0.30110499262809753,-0.2204129993915558,0.3973099887371063
1749920261983508500,0.338508544921875,-0.33045798540115356,-0.20020900666713715,0.41770198941230774
1749920261993521700,0.348521728515625,-0.37067100405693054,-0.20294299721717834,0.3981980085372925
1749920262003534800,0.358534912109375,-0.4097979962825775,-0.2191769927740097,0.3442879915237427
1749920262013548300,0.36854833984375,-0.4282020032405853,-0.23605799674987793,0.2677049934864044
1749920262023561700,0.378561767578125,-0.4171980023384094,-0.2510319948196411,0.19060499966144562
1749920262033575000,0.388574951171875,-0.39204901456832886,-0.2706719934940338,0.12860600650310516
1749920262043588400,0.39858837890625,-0.36701300740242004,-0.2857460081577301,0.0733880028128624
1749920262053601500,0.4086015625,-0.3577120006084442,-0.2497289925813675,0.09401699900627136
1749920262063615000,0.418614990234375,-0.31847500801086426,-0.24926400184631348,0.07814999669790268
1749920262073628200,0.428628173828125,-0.26633599400520325,-0.22245900332927704,0.013358999975025654
1749920262083641600,0.4386416015625,-0.15267199277877808,-0.17560499906539917,-0.02595899999141693
1749920262093654800,0.44865478515625,-0.09021499752998352,-0.11769100278615952,-0.09348700195550919
1749920262103668000,0.45866796875,0.04862400144338608,-0.06835900247097015,-0.05352900177240372
1749920262113681400,0.468681396484375,0.044707998633384705,-0.017273999750614166,-0.0672760009765625
1749920262123694600,0.478694580078125,0.004354000091552734,0.032148998230695724,-0.10642900317907333
1749920262133708000,0.4887080078125,-0.09247499704360962,0.08681900054216385,-0.18269899487495422
1749920262143721500,0.498721435546875,-0.12333200126886368,0.1272989958524704,-0.2048330008983612
1749920262153734700,0.508734619140625,-0.016688000410795212,0.14455099403858185,-0.15722599625587463
1749920262163747800,0.518747802734375,-0.011371999979019165,0.16346099972724915,-0.17564399540424347
1749920262173761300,0.52876123046875,0.02122800052165985,0.1683100014925003,-0.15724299848079681
1749920262183774700,0.538774658203125,0.024261999875307083,0.1772329956293106,-0.10600200295448303
1749920262193788000,0.548787841796875,0.033838000148534775,0.1874990016222,-0.026127999648451805
1749920262203801000,0.558801025390625,0.06058900058269501,0.19283999502658844,0.06228800117969513
1749920262213814500,0.568814453125,0.1345980018377304,0.18561899662017822,0.11737799644470215
1749920262223828000,0.578827880859375,0.21787600219249725,0.1599240005016327,0.12263300269842148
1749920262233841200,0.588841064453125,0.2613219916820526,0.11082799732685089,0.08003800362348557
1749920262243854300,0.598854248046875,0.2852889895439148,0.022902000695466995,-0.04144100099802017
1749920262253867500,0.608867431640625,0.3052299916744232,-0.07514800131320953,-0.19085100293159485
1749920262263881000,0.618880859375,0.3073909878730774,-0.13871100544929504,-0.27915799617767334
1749920262273894100,0.62889404296875,0.3202269971370697,-0.16983500123023987,-0.3190310001373291
1749920262283907600,0.638907470703125,0.3640809953212738,-0.1737920045852661,-0.3357340097427368
1749920262293920800,0.648920654296875,0.42865899205207825,-0.1479710042476654,-0.3296869993209839
1749920262303934000,0.658933837890625,0.4502499997615814,-0.13523200154304504,-0.3005239963531494
1749920262313947100,0.668947021484375,0.41344699263572693,-0.1443219929933548,-0.24169600009918213
1749920262323960800,0.6789609375,0.3409090042114258,-0.1480190008878708,-0.16245600581169128
1749920262333974000,0.68897412109375,0.2658950090408325,-0.13073700666427612,-0.07544100284576416
1749920262343987200,0.6989873046875,0.2129720002412796,-0.11237899959087372,0.015176000073552132
1749920262354001000,0.7090009765625,0.16488699615001678,-0.11148300021886826,0.0639830008149147
1749920262364014000,0.71901416015625,0.14365600049495697,-0.1352819949388504,0.08196000009775162
1749920262374027300,0.72902734375,0.13854800164699554,-0.17149600386619568,0.07220800220966339
1749920262384040400,0.73904052734375,0.1104549989104271,-0.20014899969100952,0.03267500177025795
1749920262394054100,0.74905419921875,0.14263300597667694,-0.2065339982509613,0.0728750005364418
1749920262404067300,0.7590673828125,0.05785899981856346,-0.17410199344158173,0.04016700014472008
1749920262414080500,0.76908056640625,0.059119999408721924,-0.1415800005197525,0.06667400151491165
1749920262424094000,0.779093994140625,0.04301900044083595,-0.11026299744844437,0.11827000230550766
1749920262434107400,0.789107421875,0.08166100084781647,-0.08872099965810776,0.20047199726104736
1749920262444120600,0.79912060546875,0.08531200140714645,-0.07461600005626678,0.20858000218868256
1749920262454134000,0.809134033203125,-0.01749500073492527,-0.06888700276613235,0.13366499543190002
1749920262464147200,0.819147216796875,0.0026680000592023134,-0.089649997651577,0.1267240047454834
1749920262474160600,0.82916064453125,-0.008080000057816505,-0.0987899973988533,0.09339799731969833
1749920262484173800,0.839173828125,-0.0028890001121908426,-0.09773900359869003,0.03245300054550171
1749920262494187000,0.84918701171875,0.008094999939203262,-0.08827900141477585,-0.05524799972772598
1749920262504200400,0.859200439453125,0.008519000373780727,-0.0732399970293045,-0.1529269963502884
1749920262514213600,0.869213623046875,-0.029255999252200127,-0.04665299877524376,-0.21747100353240967
1749920262524227000,0.87922705078125,-0.0806099995970726,-0.003355999942868948,-0.30958399176597595
1749920262534240300,0.889240234375,-0.1172880008816719,0.02891699969768524,-0.3645690083503723
1749920262544253400,0.89925341796875,-0.13890600204467773,0.06316500157117844,-0.38997700810432434
1749920262554266600,0.9092666015625,-0.16118000447750092,0.0984790027141571,-0.4080049991607666
1749920262564280000,0.919280029296875,-0.17076300084590912,0.10898199677467346,-0.3943989872932434
1749920262574293500,0.92929345703125,-0.15985000133514404,0.11936400085687637,-0.37802401185035706
1749920262584306700,0.939306640625,-0.17653000354766846,0.1248600035905838,-0.3938460052013397
1749920262594320100,0.949320068359375,-0.21694399416446686,0.11897800117731094,-0.3983309864997864
1749920262604333300,0.959333251953125,-0.2179269939661026,0.13310599327087402,-0.38576599955558777
1749920262614346800,0.9693466796875,-0.1831520050764084,0.1619659960269928,-0.3636470139026642
1749920262624360000,0.97935986328125,-0.1412860006093979,0.17400899529457092,-0.34448400139808655
1749920262634373400,0.989373291015625,-0.09342899918556213,0.1598290055990219,-0.3578200042247772
1749920262644386600,0.999386474609375,-0.05418499931693077,0.1360359936952591,-0.41375499963760376
1749920262654400000,1.00939990234375,-0.022151000797748566,0.130281001329422,-0.49048998951911926
1749920262664413200,1.0194130859375,0.012795999646186829,0.1478949934244156,-0.541471004486084
1749920262674426600,1.029426513671875,0.029774000868201256,0.17405299842357635,-0.5473319888114929
1749920262684439800,1.039439697265625,0.016795000061392784,0.1969580054283142,-0.5379109978675842
1749920262694453000,1.049452880859375,-0.0016919999616220593,0.2047480046749115,-0.5378450155258179
1749920262704466400,1.059466552734375,-0.028615999966859818,0.19865800440311432,-0.5411109924316406
1749920262714479900,1.06947998046875,-0.053474001586437225,0.18784800171852112,-0.5358710289001465
1749920262724493000,1.0794931640625,-0.06180499866604805,0.17696599662303925,-0.5216559767723083
1749920262734506200,1.08950634765625,-0.05544599890708923,0.16736599802970886,-0.4994939863681793
1749920262744519700,1.099519775390625,-0.04837900027632713,0.16319799423217773,-0.4693779945373535
1749920262754533000,1.109533203125,-0.051217999309301376,0.16924899816513062,-0.4407519996166229
1749920262764546300,1.11954638671875,-0.07142899930477142,0.184688001871109,-0.4207879900932312
1749920262774559500,1.1295595703125,-0.09883400052785873,0.20144400000572205,-0.40220001339912415
1749920262784572700,1.13957275390625,-0.12273699790239334,0.20961399376392365,-0.3697719871997833
1749920262794586400,1.14958642578125,-0.14371199905872345,0.20503999292850494,-0.3174610137939453
1749920262804599600,1.159599609375,-0.1578730046749115,0.19033600389957428,-0.2616940140724182
1749920262814612700,1.16961279296875,-0.16581900417804718,0.1654209941625595,-0.20571599900722504
1749920262824626000,1.1796259765625,-0.15736299753189087,0.12684600055217743,-0.08770299702882767
1749920262834639600,1.1896396484375,-0.11305800080299377,0.10058300197124481,0.004982999991625547
1749920262844652800,1.19965283203125,-0.07595299929380417,0.07586900144815445,0.055764999240636826
1749920262854666000,1.209666015625,-0.04703500121831894,0.04454300180077553,0.0845789983868599
1749920262864679400,1.219679443359375,-0.029519999399781227,0.02586599998176098,0.07487799972295761
1749920262874692600,1.229692626953125,-0.02182699926197529,-0.0010779999429360032,0.06302999705076218
1749920262884706000,1.2397060546875,-0.0026489999145269394,-0.03335899859666824,0.07972899824380875
1749920262894719200,1.24971923828125,0.03075999952852726,-0.06071700155735016,0.09251400083303452
1749920262904732700,1.259732666015625,0.06872499734163284,-0.07826200127601624,0.09686800092458725
1749920262914746000,1.26974609375,0.10509700328111649,-0.08418899774551392,0.08924099802970886
1749920262924759300,1.27975927734375,0.12876999378204346,-0.0821629986166954,0.07158499956130981
1749920262934772500,1.2897724609375,0.13908900320529938,-0.06981699913740158,0.06812100112438202
1749920262944786000,1.299785888671875,0.13336099684238434,-0.05138399824500084,0.09874200075864792
1749920262954799000,1.309799072265625,0.09692099690437317,-0.04429899901151657,0.1477549970149994
1749920262964812500,1.3198125,0.04408299922943115,-0.05050700157880783,0.1793680042028427
1749920262974826000,1.329825927734375,0.012025999836623669,-0.05643099918961525,0.21946999430656433
1749920262984839200,1.339839111328125,-0.023259999230504036,-0.05191199854016304,0.2429330050945282
1749920262994852600,1.3498525390625,-0.04625200107693672,-0.042103998363018036,0.2438260018825531
1749920263004865800,1.35986572265625,-0.05187699943780899,-0.036045998334884644,0.2379010021686554
1749920263014879000,1.36987890625,-0.04699299857020378,-0.03419899940490723,0.22837300598621368
1749920263024892400,1.379892333984375,-0.03312399983406067,-0.03687199950218201,0.2229209989309311
1749920263034905600,1.389905517578125,-0.016093000769615173,-0.044436998665332794,0.21894200146198273
1749920263044919000,1.3999189453125,0.004490000195801258,-0.05508600175380707,0.21397200226783752
1749920263054932500,1.409932373046875,0.024853000417351723,-0.06928800046443939,0.21076099574565887
1749920263064945700,1.419945556640625,0.03954700008034706,-0.08703300356864929,0.21036399900913239
1749920263074959000,1.429958984375,0.049323998391628265,-0.1069130003452301,0.21010999381542206
1749920263084972300,1.43997216796875,0.054590001702308655,-0.1205810010433197,0.20626699924468994
1749920263094985700,1.44998583984375,0.058292001485824585,-0.1243010014295578,0.1974470019340515
1749920263104999000,1.4599990234375,0.06482800096273422,-0.1217230036854744,0.18292100727558136
1749920263115012400,1.470012451171875,0.07497499883174896,-0.11646799743175507,0.16344699263572693
1749920263125025500,1.480025634765625,0.08545400202274323,-0.11060400307178497,0.14378200471401215
1749920263135039000,1.4900390625,0.09415700286626816,-0.10310400277376175,0.1286890059709549
1749920263145052200,1.50005224609375,0.09952200204133987,-0.09097400307655334,0.12089099735021591
1749920263155065600,1.510065673828125,0.09666500240564346,-0.07686500251293182,0.11120600253343582
1749920263165079000,1.5200791015625,0.08722800016403198,-0.06736599653959274,0.09847799688577652
1749920263175092200,1.53009228515625,0.06920800358057022,-0.062192998826503754,0.0846560001373291
1749920263185105700,1.540105712890625,0.04872699826955795,-0.0570329986512661,0.07276800274848938
1749920263195119000,1.550119140625,0.029339000582695007,-0.05137199908494949,0.06587599962949753
1749920263205132300,1.56013232421875,0.0121069997549057,-0.048312000930309296,0.07012999802827835
1749920263215145700,1.570145751953125,-0.00046400001156143844,-0.04899299889802933,0.07564099878072739
1749920263225159000,1.580158935546875,-0.0044570001773536205,-0.04940899834036827,0.0774959996342659
1749920263235172000,1.590172119140625,-0.013779999688267708,-0.050891999155282974,0.07425499707460403
1749920263245185500,1.600185546875,-0.022196000441908836,-0.05156699940562248,0.06368099898099899
1749920263255199000,1.610198974609375,-0.01941699907183647,-0.04674400016665459,0.05720200017094612
1749920263265212200,1.620212158203125,-0.018087999895215034,-0.034012001007795334,0.05757300183176994
1749920263275225600,1.6302255859375,-0.035985998809337616,-0.02312299981713295,0.024031000211834908
1749920263285238800,1.64023876953125,-0.030385000631213188,-0.024883000180125237,-0.0015879999846220016
1749920263295252200,1.650252197265625,-0.015752000734210014,-0.03356900066137314,-0.011037999764084816
1749920263305265400,1.660265380859375,-0.003217000048607588,-0.03815599903464317,-0.016364000737667084
1749920263315278800,1.67027880859375,0.006237000226974487,-0.03595200181007385,-0.021391000598669052
1749920263325292000,1.6802919921875,0.006074999924749136,-0.026653999462723732,-0.03179699927568436
1749920263335305500,1.690305419921875,-0.004780000075697899,-0.014682999812066555,-0.04542100057005882
1749920263345318700,1.700318603515625,-0.02540300041437149,-0.000957000011112541,-0.06321600079536438
1749920263355332000,1.71033203125,-0.04317900165915489,0.005745999980717897,-0.10018099844455719
1749920263365345300,1.72034521484375,-0.04597200080752373,0.011874999850988388,-0.11960099637508392
1749920263375358700,1.730358642578125,-0.035627998411655426,0.01716100051999092,-0.10825800150632858
1749920263385372200,1.7403720703125,-0.022628000006079674,0.015261000022292137,-0.08935199677944183
1749920263395385300,1.75038525390625,-0.01752699911594391,-0.0004959999932907522,-0.08233500272035599
1749920263405398500,1.7603984375,-0.024109000340104103,-0.030276000499725342,-0.0905120000243187
1749920263415411700,1.77041162109375,-0.03531299903988838,-0.060867998749017715,-0.09820300340652466
1749920263425425200,1.780425048828125,-0.0482340008020401,-0.08764000236988068,-0.1275320053100586
1749920263435438600,1.7904384765625,-0.05767799913883209,-0.08920200169086456,-0.14275899529457092
1749920263445451800,1.80045166015625,-0.0520160011947155,-0.0825980007648468,-0.12844400107860565
1749920263455465200,1.81046533203125,-0.046209000051021576,-0.08676400035619736,-0.10856500267982483
1749920263465478400,1.820478515625,-0.051013000309467316,-0.10733599960803986,-0.10115399956703186
1749920263475491800,1.830491943359375,-0.06175199896097183,-0.13790200650691986,-0.1316159963607788
1749920263485505000,1.840505126953125,-0.05961700156331062,-0.1527789980173111,-0.16192400455474854
1749920263495518500,1.8505185546875,-0.04654499888420105,-0.1359499990940094,-0.17671999335289001
1749920263505531600,1.86053173828125,-0.052942000329494476,-0.12274199724197388,-0.18753699958324432
1749920263515545000,1.870545166015625,-0.06948699802160263,-0.09781000018119812,-0.18820899724960327
1749920263525558300,1.880558349609375,-0.11145400255918503,-0.07262899726629257,-0.20598499476909637
1749920263535571700,1.89057177734375,-0.16335199773311615,-0.06008300185203552,-0.2180349975824356
1749920263545585000,1.9005849609375,-0.1988690048456192,-0.059046998620033264,-0.2267169952392578
1749920263555598000,1.91059814453125,-0.19337999820709229,-0.08643899857997894,-0.22363899648189545
1749920263565611500,1.920611572265625,-0.16466400027275085,-0.142317995429039,-0.21389800310134888
1749920263575625000,1.930625,-0.10861899703741074,-0.1938530057668686,-0.19040000438690186
1749920263585638100,1.94063818359375,-0.056759998202323914,-0.22741900384426117,-0.17792199552059174
1749920263595651300,1.9506513671875,-0.032639000564813614,-0.24258799850940704,-0.16436399519443512
1749920263605664800,1.960664794921875,-0.04730699956417084,-0.2494879961013794,-0.14125999808311462
1749920263615678000,1.970677978515625,-0.09728600084781647,-0.2550719976425171,-0.12360599637031555
1749920263625691400,1.98069140625,-0.17557699978351593,-0.26477500796318054,-0.10788699984550476
1749920263635704600,1.99070458984375,-0.25493499636650085,-0.27157899737358093,-0.092119000852108
1749920263645718000,2.000718017578125,-0.3300420045852661,-0.2874929904937744,-0.07299300283193588
1749920263655731200,2.010731201171875,-0.38623398542404175,-0.3082689940929413,-0.04032599925994873
1749920263665744400,2.020744384765625,-0.43246400356292725,-0.33012399077415466,-0.03609199821949005
1749920263675757800,2.0307578125,-0.471235990524292,-0.34454500675201416,-0.09131400287151337
1749920263685771300,2.040771240234375,-0.5096589922904968,-0.35250499844551086,-0.16996799409389496
1749920263695784400,2.050784423828125,-0.5939639806747437,-0.3820500075817108,-0.23021000623703003
1749920263705798000,2.0607978515625,-0.6475539803504944,-0.3779129981994629,-0.2629530131816864
1749920263715811000,2.07081103515625,-0.6440730094909668,-0.35283198952674866,-0.28154999017715454
1749920263725824300,2.08082421875,-0.6327340006828308,-0.3408749997615814,-0.26131299138069153
1749920263735837700,2.090837646484375,-0.6529039740562439,-0.3627220094203949,-0.26459598541259766
1749920263745851100,2.10085107421875,-0.6925989985466003,-0.37956100702285767,-0.34396401047706604
1749920263755864300,2.1108642578125,-0.7190549969673157,-0.3743259906768799,-0.45815199613571167
1749920263765877800,2.120877685546875,-0.7300689816474915,-0.3530910015106201,-0.5435649752616882
1749920263775891200,2.13089111328125,-0.7432219982147217,-0.3345699906349182,-0.5448570251464844
1749920263785904400,2.140904296875,-0.7887309789657593,-0.35276201367378235,-0.4887489974498749
1749920263795917800,2.150917724609375,-0.8556560277938843,-0.4284150004386902,-0.4197939932346344
1749920263805931300,2.16093115234375,-0.7806130051612854,-0.5296080112457275,-0.39610499143600464
1749920263815944400,2.1709443359375,-0.6360459923744202,-0.6839839816093445,-0.43780699372291565
1749920263825957600,2.18095751953125,-0.8773530125617981,-0.8287450075149536,-0.41460201144218445
1749920263835971000,2.19097119140625,-0.9770560264587402,-0.910332977771759,-0.4596270024776459
1749920263845984500,2.200984619140625,-1.0029330253601074,-0.9270169734954834,-0.49698901176452637
1749920263855997700,2.210997802734375,-1.0145039558410645,-0.8880749940872192,-0.5932769775390625
1749920263866010000,2.221010009765625,-0.9885820150375366,-0.830361008644104,-0.7229160070419312
1749920263876024300,2.2310244140625,-0.9128109812736511,-0.7982370257377625,-0.8719580173492432
1749920263886037800,2.241037841796875,-0.8235899806022644,-0.7895839810371399,-0.983913004398346
1749920263896051000,2.251051025390625,-0.7440419793128967,-0.8027089834213257,-1.077178955078125
1749920263906064400,2.261064453125,-0.6945130228996277,-0.8609009981155396,-1.145216941833496
1749920263916077800,2.271077880859375,-0.6834930181503296,-0.9822819828987122,-1.2059669494628906
1749920263926091000,2.281091064453125,-0.5998489856719971,-1.1129059791564941,-1.28342604637146
1749920263936104400,2.2911044921875,-0.43697500228881836,-1.262861967086792,-1.3494800329208374
1749920263946118000,2.301117919921875,-0.23242400586605072,-1.418835997581482,-1.4276050329208374
1749920263956131000,2.311131103515625,-0.0627169981598854,-1.5119479894638062,-1.5224109888076782
1749920263966144300,2.321144287109375,0.07081200182437897,-1.546852946281433,-1.6077690124511719
1749920263976157400,2.331157470703125,0.14545799791812897,-1.5576030015945435,-1.6700539588928223
1749920263986171100,2.341171142578125,0.18231900036334991,-1.5462839603424072,-1.7186039686203003
1749920263996184300,2.351184326171875,0.25266799330711365,-1.4721059799194336,-1.745697021484375
1749920264006197500,2.361197509765625,0.24312299489974976,-1.407655954360962,-1.788375973701477
1749920264016210700,2.371210693359375,0.13722899556159973,-1.3443479537963867,-1.8387360572814941
1749920264026224400,2.381224365234375,-0.004563000053167343,-1.2398170232772827,-1.8969659805297852
1749920264036237600,2.391237548828125,-0.1086760014295578,-1.0968149900436401,-1.9305239915847778
1749920264046250800,2.401250732421875,-0.15921400487422943,-0.9544500112533569,-1.9032950401306152
1749920264056264200,2.41126416015625,-0.18234199285507202,-0.8302779793739319,-1.817091941833496
1749920264066277600,2.421277587890625,-0.18794700503349304,-0.7235980033874512,-1.7217589616775513
1749920264076290800,2.431290771484375,-0.16829800605773926,-0.6237620115280151,-1.6785030364990234
1749920264086304300,2.44130419921875,-0.17907500267028809,-0.5586410164833069,-1.706146001815796
1749920264096317400,2.4513173828125,-0.19899700582027435,-0.5232080221176147,-1.7304309606552124
1749920264106331000,2.461330810546875,-0.3273659944534302,-0.4757710099220276,-1.6866530179977417
1749920264116344300,2.47134423828125,-0.48158499598503113,-0.39734500646591187,-1.5616719722747803
1749920264126357500,2.481357421875,-0.1736840009689331,-0.3203650116920471,-1.4990359544754028
1749920264136370700,2.49137060546875,0.023538999259471893,-0.2683590054512024,-1.4023189544677734
1749920264146384100,2.501384033203125,0.11721599847078323,-0.2543349862098694,-1.3101999759674072
1749920264156397300,2.511397216796875,0.15053200721740723,-0.26386600732803345,-1.1652519702911377
1749920264166410800,2.52141064453125,0.11135900020599365,-0.2682340145111084,-0.9810429811477661
1749920264176424000,2.531423828125,-0.003806999884545803,-0.25979000329971313,-0.7727059721946716
1749920264186437400,2.541437255859375,-0.12837399542331696,-0.25558799505233765,-0.5863680243492126
1749920264196450600,2.551450439453125,-0.21359799802303314,-0.25682398676872253,-0.39560800790786743
1749920264206464000,2.561464111328125,-0.2555379867553711,-0.2235269993543625,-0.22257000207901
1749920264216477400,2.5714775390625,-0.28564101457595825,-0.10233499854803085,-0.07635100185871124
1749920264226490600,2.58149072265625,-0.3650150001049042,0.07876600325107574,0.0645660012960434
1749920264236503800,2.59150390625,-0.4903790056705475,0.2848759889602661,0.20468999445438385
1749920264246517200,2.601517333984375,-0.6470460295677185,0.5016689896583557,0.35579898953437805
1749920264256530700,2.61153076171875,-0.749396026134491,0.6539710164070129,0.5020310282707214
1749920264266543900,2.6215439453125,-0.7851790189743042,0.7313780188560486,0.6405360102653503
1749920264276557000,2.63155712890625,-0.7867349982261658,0.7545469999313354,0.8232889771461487
1749920264286570500,2.641570556640625,-0.8225200176239014,0.7433949708938599,1.038957953453064
1749920264296584000,2.651583984375,-0.8119469881057739,0.7484560012817383,1.1524369716644287
1749920264306597000,2.66159716796875,-0.7169780135154724,0.7405650019645691,1.292891025543213
1749920264316610300,2.6716103515625,-0.5919060111045837,0.7277399897575378,1.4016159772872925
1749920264326623700,2.681623779296875,-0.45181798934936523,0.7354210019111633,1.477869987487793
1749920264336637000,2.691636962890625,-0.33540499210357666,0.6982150077819824,1.5979290008544922
1749920264346650400,2.701650390625,-0.28019899129867554,0.6137340068817139,1.6777600049972534
1749920264356663800,2.711663818359375,-0.16216500103473663,0.5584070086479187,1.65824294090271
1749920264366677200,2.72167724609375,-0.0635249987244606,0.4571329951286316,1.6816389560699463
1749920264376690400,2.7316904296875,0.03958500176668167,0.3393380045890808,1.745237946510315
1749920264396717300,2.75171728515625,0.22792799770832062,0.22597500681877136,1.9026319980621338
1749920264406730500,2.76173046875,0.3063940107822418,0.1970600038766861,1.9138619899749756
1749920264416744000,2.771743896484375,0.378807008266449,0.16703300178050995,1.8688950538635254
1749920264426757000,2.781757080078125,0.33158499002456665,0.10208699852228165,1.808148980140686
1749920264436770600,2.7917705078125,0.1894190013408661,-0.00030700000934302807,1.755722999572754
1749920264446784000,2.801783935546875,0.05346899852156639,-0.0566210001707077,1.6668540239334106
1749920264456797200,2.811797119140625,-0.08478700369596481,-0.05091499909758568,1.5633909702301025
1749920264466810600,2.821810546875,-0.179749995470047,0.005042999982833862,1.4473570585250854
1749920264476824000,2.831823974609375,-0.2529760003089905,0.09635499864816666,1.3119440078735352
1749920264486837200,2.841837158203125,-0.31679201126098633,0.20222100615501404,1.1798640489578247
1749920264496850400,2.851850341796875,-0.3526490032672882,0.30664199590682983,1.0500019788742065
1749920264506864000,2.861864013671875,-0.32297998666763306,0.4113749861717224,0.9411960244178772
1749920264516877300,2.871877197265625,-0.24427400529384613,0.48034900426864624,0.8578550219535828
1749920264526890500,2.881890380859375,-0.16649700701236725,0.48604899644851685,0.7721560001373291
1749920264546917000,2.901917236328125,-0.0689530000090599,0.4180249869823456,0.6087689995765686
1749920264556930600,2.9119306640625,-0.054395999759435654,0.40337300300598145,0.5052109956741333
1749920264566944000,2.921944091796875,-0.09050700068473816,0.3898000121116638,0.39280399680137634
1749920264576957200,2.931957275390625,-0.0985179990530014,0.3650229871273041,0.23813900351524353
1749920264586970600,2.941970703125,-0.04101800173521042,0.29808300733566284,0.004403000231832266
1749920264596983800,2.95198388671875,-0.03983699902892113,0.1493380069732666,-0.1936960071325302
1749920264606997000,2.9619970703125,-0.06551600247621536,-0.022265000268816948,-0.41729700565338135
1749920264617010400,2.972010498046875,-0.04698599874973297,-0.20168699324131012,-0.628292977809906
1749920264627024000,2.98202392578125,0.02740499936044216,-0.3871060013771057,-0.8251810073852539
1749920264637037000,2.992037109375,0.16889600455760956,-0.5172470211982727,-1.0443660020828247
1749920264647050200,3.00205029296875,0.35059499740600586,-0.6164420247077942,-1.190729022026062
1749920264657063700,3.012063720703125,0.3225499987602234,-0.7458540201187134,-1.258275032043457
1749920264667077000,3.0220771484375,0.19515199959278107,-0.8410189747810364,-1.3225899934768677
1749920264677090300,3.03209033203125,-0.05731299892067909,-0.8955709934234619,-1.4096059799194336
1749920264687103700,3.042103759765625,-0.30448800325393677,-0.8972030282020569,-1.4931989908218384
1749920264697117200,3.0521171875,-0.4289329946041107,-0.8024849891662598,-1.5784610509872437
1749920264707130600,3.062130615234375,-0.5088890194892883,-0.6621630191802979,-1.6044689416885376
1749920264717143800,3.072143798828125,-0.5809620022773743,-0.5151100158691406,-1.6070150136947632
1749920264727157000,3.082156982421875,-0.5725409984588623,-0.37888801097869873,-1.546036958694458
1749920264737170400,3.09217041015625,-0.49978700280189514,-0.2633349895477295,-1.4175759553909302
1749920264747183900,3.102183837890625,-0.38061198592185974,-0.20664499700069427,-1.2521109580993652
1749920264757197300,3.112197265625,-0.1799270063638687,-0.18638500571250916,-1.055317997932434
1749920264767210800,3.122210693359375,-0.034765999764204025,-0.1804569959640503,-0.8798810243606567
1749920264777224000,3.132223876953125,0.03903200104832649,-0.2119770050048828,-0.6934340000152588
1749920264787237000,3.142237060546875,0.07457700371742249,-0.2665629982948303,-0.5270370244979858
1749920264797250600,3.15225048828125,0.09420199692249298,-0.30231499671936035,-0.4093720018863678
1749920264807264000,3.162263916015625,0.09164199978113174,-0.30990999937057495,-0.343394011259079
1749920264817277200,3.172277099609375,0.10919400304555893,-0.2997710108757019,-0.2805890142917633
1749920264827290600,3.18229052734375,0.12432199716567993,-0.28444498777389526,-0.1905059963464737
1749920264837304000,3.192303955078125,0.14485199749469757,-0.253030002117157,-0.08817499876022339
1749920264847317200,3.202317138671875,0.12303200364112854,-0.21417100727558136,0.006134999915957451
1749920264857330700,3.21233056640625,0.10781099647283554,-0.17382700741291046,0.14441099762916565
1749920264867344100,3.22234423828125,0.0706700012087822,-0.11703500151634216,0.2939760088920593
1749920264877357300,3.232357421875,-0.005264999810606241,-0.05832099914550781,0.4451040029525757
1749920264887370800,3.242370849609375,-0.06084299832582474,0.007801999803632498,0.6355339884757996
1749920264897384000,3.252384033203125,-0.05927300080657005,0.07232099771499634,0.8422110080718994
1749920264907397600,3.262397705078125,-0.04288500174880028,0.1302579939365387,1.068140983581543
1749920264917410800,3.272410888671875,-0.07338099926710129,0.1972929984331131,1.30513596534729
1749920264927424000,3.282424072265625,-0.1590700000524521,0.21880599856376648,1.5521260499954224
1749920264937437400,3.2924375,-0.2858479917049408,0.19624100625514984,1.7465269565582275
1749920264947451000,3.302450927734375,-0.4034869968891144,0.19587400555610657,1.8383920192718506
1749920264957464000,3.312464111328125,-0.43720000982284546,0.25936201214790344,1.8647680282592773
1749920264967477500,3.3224775390625,-0.37874600291252136,0.3838939964771271,1.7704349756240845
1749920264977490700,3.33249072265625,-0.18366999924182892,0.4678780138492584,1.6572370529174805
1749920264987504000,3.342504150390625,-0.005646000150591135,0.47626399993896484,1.5709539651870728
1749920264997517600,3.352517578125,0.08512099832296371,0.39186498522758484,1.479200005531311
1749920265007530800,3.36253076171875,0.14254100620746613,0.2521370053291321,1.3273320198059082
1749920265017544200,3.372544189453125,0.18879500031471252,0.08914999663829803,1.1581449508666992
1749920265037570800,3.39257080078125,0.2580839991569519,-0.039962999522686005,0.6685299873352051
1749920265047584300,3.402584228515625,0.21380899846553802,-0.06765999644994736,0.3486509919166565
1749920265067611000,3.42261083984375,-0.10623399913311005,-0.3354710042476654,-0.19292999804019928
1749920265077624300,3.432624267578125,-0.23623600602149963,-0.411965012550354,-0.3663110136985779
1749920265087637500,3.442637451171875,-0.2689869999885559,-0.40573999285697937,-0.4453200101852417
1749920265097651000,3.45265087890625,-0.25994500517845154,-0.40235599875450134,-0.45381098985671997
1749920265107664400,3.462664306640625,-0.24032600224018097,-0.3894970118999481,-0.41572099924087524
1749920265117677800,3.472677734375,-0.23656900227069855,-0.3748680055141449,-0.3587540090084076
1749920265127691000,3.48269091796875,-0.22207200527191162,-0.361952006816864,-0.28693899512290955
1749920265137704200,3.4927041015625,-0.2202419936656952,-0.3454900085926056,-0.22291100025177002
1749920265147718000,3.5027177734375,-0.2880510091781616,-0.3484100103378296,-0.14723600447177887
1749920265157731000,3.51273095703125,-0.45555898547172546,-0.4120369851589203,-0.05228300020098686
1749920265167744300,3.522744140625,-0.5871400237083435,-0.5071200132369995,0.03804299980401993
1749920265177757700,3.5327578125,-0.603659987449646,-0.5822280049324036,0.08553300052881241
1749920265187771100,3.542771240234375,-0.5432620048522949,-0.59340900182724,0.11133000254631042
1749920265197784600,3.55278466796875,-0.47010698914527893,-0.5290600061416626,0.13209599256515503
1749920265207797800,3.5627978515625,-0.43029001355171204,-0.4261209964752197,0.11378499865531921
1749920265217811200,3.572811279296875,-0.38439100980758667,-0.3458769917488098,0.0911559984087944
1749920265227824600,3.58282470703125,-0.33949899673461914,-0.2740840017795563,0.06973200291395187
1749920265237837800,3.592837890625,-0.31092798709869385,-0.2058590054512024,0.05138099938631058
1749920265247851000,3.60285107421875,-0.3143109977245331,-0.16615499556064606,0.06798399984836578
1749920265257864700,3.61286474609375,-0.29441699385643005,-0.19638599455356598,0.12525500357151031
1749920265267878000,3.6228779296875,-0.27052098512649536,-0.2847360074520111,0.2202329933643341
1749920265277891300,3.632891357421875,-0.2681950032711029,-0.39065900444984436,0.31683799624443054
1749920265287904500,3.642904541015625,-0.18697500228881836,-0.5311340093612671,0.3577289879322052
1749920265297918000,3.65291796875,-0.05425899848341942,-0.7345569729804993,0.417385995388031
1749920265307931400,3.662931396484375,0.07866500318050385,-0.957502007484436,0.5226989984512329
1749920265317944600,3.672944580078125,0.1378220021724701,-1.1018270254135132,0.6404690146446228
1749920265327958000,3.6829580078125,0.15673699975013733,-1.1674269437789917,0.7555620074272156
1749920265337971500,3.692971435546875,0.1518850028514862,-1.1612939834594727,0.8429120182991028
1749920265347984600,3.702984619140625,0.15924100577831268,-1.056854009628296,0.9622730016708374
1749920265357998000,3.712998046875,0.15669800341129303,-0.8451629877090454,1.073976993560791
1749920265368011300,3.72301123046875,0.24928200244903564,-0.6562740206718445,1.1964130401611328
1749920265378025000,3.73302490234375,0.3230940103530884,-0.5120589733123779,1.2842739820480347
1749920265388038100,3.7430380859375,0.3224479854106903,-0.44769901037216187,1.299144983291626
1749920265398051600,3.753051513671875,0.26396000385284424,-0.40559500455856323,1.2554329633712769
1749920265408064800,3.763064697265625,0.1844169944524765,-0.407602995634079,1.1583410501480103
1749920265418078200,3.773078125,0.12103699892759323,-0.42612800002098083,1.0292719602584839
1749920265428091600,3.783091552734375,0.056095998734235764,-0.4417780041694641,0.8820919990539551
1749920265438104800,3.793104736328125,0.013848000206053257,-0.4588940143585205,0.7234860062599182
1749920265448118300,3.8031181640625,0.05576999858021736,-0.467415988445282,0.5389490127563477
1749920265458131700,3.813131591796875,0.1975259929895401,-0.4340749979019165,0.3539060056209564
1749920265468145000,3.823144775390625,0.33250999450683594,-0.38460999727249146,0.18850600719451904
1749920265478158300,3.833158447265625,0.3908259868621826,-0.3370569944381714,0.07163599878549576
1749920265498185200,3.853185302734375,0.31666800379753113,-0.32134100794792175,-0.07723300158977509
1749920265508198400,3.863198486328125,0.2725520133972168,-0.3345809876918793,-0.12314199656248093
1749920265518211800,3.8732119140625,0.22972500324249268,-0.3506639897823334,-0.15859200060367584
1749920265528225300,3.883225341796875,0.19814500212669373,-0.36429500579833984,-0.1931450068950653
1749920265538238500,3.893238525390625,0.1727530062198639,-0.36677300930023193,-0.22033999860286713
1749920265548251600,3.903251708984375,0.14343799650669098,-0.35509300231933594,-0.23615899682044983
1749920265558265300,3.913265380859375,0.11481399834156036,-0.33336299657821655,-0.2398120015859604
1749920265568278500,3.923278564453125,0.08476399630308151,-0.29676198959350586,-0.2307949960231781
1749920265578292000,3.9332919921875,0.04393300041556358,-0.21544800698757172,-0.2171970009803772
1749920265588305200,3.94330517578125,-0.02039800025522709,-0.06165099889039993,-0.1950179934501648
1749920265598318800,3.95331884765625,-0.11374600231647491,0.18103399872779846,-0.20326000452041626
1749920265608332000,3.96333203125,-0.2478010058403015,0.47707700729370117,-0.24662800133228302
1749920265618345200,3.97334521484375,-0.3395310044288635,0.7330660223960876,-0.28253600001335144
1749920265628358700,3.983358642578125,-0.39107900857925415,0.9035090208053589,-0.29587599635124207
1749920265638372000,3.9933720703125,-0.4093970060348511,0.9406480193138123,-0.2588549852371216
1749920265648385500,4.003385498046875,-0.3991529941558838,0.8882539868354797,-0.1959110051393509
1749920265668412000,4.023411865234375,-0.3459390103816986,0.6994400024414062,-0.1435530036687851
1749920265678425300,4.03342529296875,-0.3264229893684387,0.5890480279922485,-0.16808900237083435
1749920265688438800,4.043438720703125,-0.31342801451683044,0.4909679889678955,-0.20138099789619446
1749920265698452200,4.0534521484375,-0.3034780025482178,0.40516000986099243,-0.23210099339485168
1749920265708465400,4.06346533203125,-0.2997959852218628,0.31984999775886536,-0.2466530054807663
1749920265718478600,4.073478515625,-0.30023500323295593,0.2350039929151535,-0.24361099302768707
1749920265728492000,4.083491943359375,-0.29707399010658264,0.15422900021076202,-0.22904600203037262
1749920265738505500,4.09350537109375,-0.2817760109901428,0.08233000338077545,-0.20666800439357758
1749920265748519000,4.103518798828125,-0.23653000593185425,0.021683000028133392,-0.17644299566745758
1749920265758532400,4.113532470703125,-0.15468299388885498,-0.024025000631809235,-0.14128200709819794
1749920265768545800,4.1235458984375,-0.05536799877882004,-0.0446930006146431,-0.10951399803161621
1749920265778559000,4.13355908203125,0.04157700017094612,-0.04213999956846237,-0.0782260000705719
1749920265798585900,4.1535859375,0.18463900685310364,0.03367000073194504,-0.021321000531315804
1749920265808599000,4.16359912109375,0.23843500018119812,0.08714299649000168,0.008352000266313553
1749920265818612500,4.173612548828125,0.2781530022621155,0.15067000687122345,0.028133999556303024
1749920265828626000,4.1836259765625,0.29722100496292114,0.2173900008201599,0.03342499956488609
1749920265838639400,4.193639404296875,0.29683399200439453,0.2791909873485565,0.03172000125050545
1749920265848652500,4.203652587890625,0.28867098689079285,0.3283790051937103,0.027036000043153763
1749920265858666000,4.213666015625,0.27607500553131104,0.36651501059532166,0.013903000392019749
1749920265868679400,4.223679443359375,0.26210400462150574,0.4027079939842224,-0.01811799965798855
1749920265878692600,4.233692626953125,0.2432660013437271,0.43529999256134033,-0.06135699898004532
1749920265888706000,4.2437060546875,0.21606500446796417,0.45773598551750183,-0.10239599645137787
1749920265898719500,4.253719482421875,0.1907919943332672,0.46176499128341675,-0.1271190047264099
1749920265908733000,4.26373291015625,0.1678290069103241,0.4494749903678894,-0.1380230039358139
1749920265918746000,4.27374609375,0.13419899344444275,0.4362579882144928,-0.14527800679206848
1749920265928759600,4.283759521484375,0.10129400342702866,0.42913299798965454,-0.14737899601459503
1749920265938773000,4.29377294921875,0.09852900356054306,0.43147701025009155,-0.13597099483013153
1749920265948786200,4.3037861328125,0.13730500638484955,0.4309900104999542,-0.11273500323295593
1749920265958799600,4.313799560546875,0.1942480057477951,0.3992519974708557,-0.08335699886083603
1749920265968813000,4.32381298828125,0.2092829942703247,0.33025500178337097,-0.08826500177383423
1749920265978826200,4.333826171875,0.14354799687862396,0.19218599796295166,-0.12539100646972656
1749920265988839700,4.343839599609375,-0.000018000000636675395,-0.008163000456988811,-0.14947399497032166
1749920265998853000,4.35385302734375,-0.14768899977207184,-0.21741199493408203,-0.13388100266456604
1749920266008866300,4.3638662109375,-0.19853200018405914,-0.38519299030303955,-0.08392900228500366
1749920266018879700,4.373879638671875,-0.13833099603652954,-0.457489013671875,-0.0213019996881485
1749920266028893200,4.38389306640625,-0.0069160000421106815,-0.4052560031414032,0.02605300024151802
1749920266038906400,4.39390625,0.13103100657463074,-0.2837269902229309,0.053467001765966415
1749920266048919800,4.403919921875,0.22421599924564362,-0.14257900416851044,0.0753989964723587
1749920266058933200,4.413933349609375,0.2473679929971695,-0.008717999793589115,0.09109299629926682
1749920266068946700,4.42394677734375,0.20964199304580688,0.10053899884223938,0.106393001973629
1749920266078959900,4.4339599609375,0.13349199295043945,0.16662399470806122,0.1082260012626648
1749920266088973300,4.443973388671875,0.046459998935461044,0.1643269956111908,0.0860700011253357
1749920266098986500,4.453986572265625,-0.0350399985909462,0.0994739979505539,0.03680599853396416
1749920266109000000,4.464,-0.10732799768447876,-0.0021410000044852495,-0.03318699821829796
1749920266119013400,4.474013427734375,-0.1723089963197708,-0.11561299860477448,-0.11963599920272827
1749920266129026800,4.48402685546875,-0.22965699434280396,-0.22305400669574738,-0.21746200323104858
1749920266139040300,4.494040283203125,-0.27023598551750183,-0.3086250126361847,-0.31327998638153076
1749920266149053400,4.504053466796875,-0.286545991897583,-0.35332998633384705,-0.37671899795532227
1749920266159067000,4.51406689453125,-0.278780996799469,-0.35353198647499084,-0.3834800124168396
1749920266169080000,4.524080078125,-0.2529039978981018,-0.3319230079650879,-0.33806800842285156
1749920266179093800,4.53409375,-0.20940999686717987,-0.30761200189590454,-0.2569830119609833
1749920266189107000,4.54410693359375,-0.15137499570846558,-0.28707799315452576,-0.1605750024318695
1749920266199120400,4.554120361328125,-0.08822000026702881,-0.2693740129470825,-0.06870099902153015
1749920266209133800,4.5641337890625,-0.012923000380396843,-0.2615309953689575,0.013416999951004982
1749920266219147000,4.57414697265625,0.08478999882936478,-0.26866498589515686,0.06729999929666519
1749920266229160400,4.584160400390625,0.16966499388217926,-0.28535300493240356,0.07599399983882904
1749920266239174000,4.594173828125,0.20768600702285767,-0.31804901361465454,0.031170999631285667
1749920266249187300,4.604187255859375,0.1930910050868988,-0.36316800117492676,-0.045419998466968536
1749920266259200500,4.614200439453125,0.1595810055732727,-0.3913460075855255,-0.12182500213384628
1749920266269214000,4.6242138671875,0.17171800136566162,-0.3790299892425537,-0.12344499677419662
1749920266279227400,4.634227294921875,0.27821698784828186,-0.2780669927597046,-0.041103001683950424
1749920266289240600,4.644240478515625,0.4842120110988617,-0.08052600175142288,0.04430599883198738
1749920266299254300,4.654254150390625,0.7147690057754517,0.16599799692630768,0.08460500091314316
1749920266309267700,4.664267822265625,0.8468610048294067,0.4034389853477478,0.07477100193500519
1749920266319281000,4.674281005859375,0.8397200107574463,0.5493370294570923,0.04947400093078613
1749920266329294600,4.684294677734375,0.7240009903907776,0.5522210001945496,0.03204499930143356
1749920266339307800,4.694307861328125,0.5742210149765015,0.457163006067276,0.02404000051319599
1749920266349321000,4.704321044921875,0.4354979991912842,0.3156749904155731,0.002185000106692314
1749920266359334400,4.71433447265625,0.3262439966201782,0.16469000279903412,-0.048114001750946045
1749920266369347800,4.724347900390625,0.24356600642204285,0.031067000702023506,-0.12512999773025513
1749920266379361300,4.734361328125,0.18086999654769897,-0.06523100286722183,-0.19510599970817566
1749920266389374500,4.74437451171875,0.14016300439834595,-0.11373300105333328,-0.2401690036058426
1749920266399388200,4.75438818359375,0.1222819983959198,-0.11646000295877457,-0.24518999457359314
1749920266409401300,4.7644013671875,0.12042699754238129,-0.08882699906826019,-0.19710999727249146
1749920266419414800,4.774414794921875,0.12513500452041626,-0.04699200019240379,-0.10820800065994263
1749920266429428200,4.78442822265625,0.1480560004711151,-0.005797999911010265,-0.0005660000024363399
1749920266439441400,4.79444140625,0.19161200523376465,0.023260999470949173,0.10118799656629562
1749920266449454800,4.804454833984375,0.2396720051765442,0.03144099935889244,0.16822700202465057
1749920266459468300,4.81446826171875,0.2744170129299164,0.022343000397086143,0.18904200196266174
1749920266469481700,4.824481689453125,0.28580498695373535,0.009766999632120132,0.18334800004959106
1749920266479495000,4.834494873046875,0.2814440131187439,0.005834000185132027,0.1661510020494461
1749920266489508400,4.84450830078125,0.2624410092830658,0.008944000117480755,0.1416040062904358
1749920266499521800,4.854521728515625,0.2292339950799942,0.014498000033199787,0.12100800126791
1749920266509535000,4.864534912109375,0.1795559972524643,0.024174999445676804,0.10395699739456177
1749920266519548400,4.87454833984375,0.11172199994325638,0.034598998725414276,0.10193599760532379
1749920266529561600,4.8845615234375,0.06466999650001526,0.04319300130009651,0.11685500293970108
1749920266539575000,4.894574951171875,0.04318000003695488,0.05670899897813797,0.1506900042295456
1749920266549588500,4.90458837890625,0.030522000044584274,0.08073800057172775,0.1796720027923584
1749920266559601700,4.9146015625,0.02135300077497959,0.11483599990606308,0.18810999393463135
1749920266569615000,4.924614990234375,0.01548600010573864,0.1465200036764145,0.16012899577617645
1749920266579628500,4.934628662109375,0.006579000037163496,0.16995200514793396,0.08564600348472595
1749920266589642000,4.94464208984375,-0.013124000281095505,0.17490699887275696,0.0026279999874532223
1749920266599655200,4.9546552734375,-0.047912001609802246,0.153205007314682,-0.06282699853181839
1749920266609668600,4.964668701171875,-0.07561500370502472,0.10902799665927887,-0.10491299629211426
1749920266619682000,4.97468212890625,-0.07492099702358246,0.06379199773073196,-0.14100800454616547
1749920266629695200,4.9846953125,-0.03988900035619736,0.03500799834728241,-0.17096999287605286
1749920266639708700,4.994708740234375,0.002435999922454357,0.029155999422073364,-0.19340699911117554
1749920266649722000,5.00472216796875,0.031637001782655716,0.035711001604795456,-0.20235399901866913
1749920266659735300,5.0147353515625,0.05142199993133545,0.03405899927020073,-0.1865909993648529
1749920266669748700,5.024748779296875,0.0684640035033226,0.012752999551594257,-0.15246599912643433
1749920266679762200,5.03476220703125,0.077053003013134,-0.02114499919116497,-0.12401500344276428
1749920266689775400,5.044775390625,0.07364500313997269,-0.04679600149393082,-0.10591600090265274
1749920266699788800,5.054788818359375,0.062171999365091324,-0.04426800087094307,-0.10503599792718887
1749920266709802200,5.06480224609375,0.0565049983561039,-0.009812000207602978,-0.1319119930267334
1749920266719815700,5.074815673828125,0.06384699791669846,0.04469500109553337,-0.17256799340248108
1749920266729828900,5.084828857421875,0.0697840005159378,0.10815700143575668,-0.21249699592590332
1749920266739842600,5.094842529296875,0.060743000358343124,0.172652006149292,-0.24769799411296844
1749920266749855700,5.104855712890625,0.04374200105667114,0.23146399855613708,-0.2819870114326477
1749920266759869000,5.114868896484375,0.03314200043678284,0.27366000413894653,-0.31593000888824463
1749920266769882400,5.12488232421875,0.0385809987783432,0.29413700103759766,-0.3443619906902313
1749920266779896000,5.13489599609375,0.03986699879169464,0.28619399666786194,-0.3678100109100342
1749920266789909200,5.1449091796875,0.02684899978339672,0.2444700002670288,-0.3707990050315857
1749920266799922700,5.154922607421875,-0.01037800032645464,0.17157100141048431,-0.35084301233291626
1749920266809936100,5.16493603515625,-0.06870000064373016,0.08228500187397003,-0.3096599876880646
1749920266819949300,5.17494921875,-0.12429600208997726,0.0026209999341517687,-0.2576240003108978
1749920266829962800,5.184962646484375,-0.1559399962425232,-0.04004000127315521,-0.20424799621105194
1749920266839976200,5.19497607421875,-0.14875799417495728,-0.0324149988591671,-0.15758800506591797
1749920266849989600,5.20498974609375,-0.1151759997010231,0.017544999718666077,-0.10800199955701828
1749920266860002800,5.2150029296875,-0.08256399631500244,0.09103299677371979,-0.057225000113248825
1749920266870016300,5.225016357421875,-0.05800599977374077,0.16144299507141113,-0.012260000221431255
1749920266880029700,5.23502978515625,-0.04557500034570694,0.21157999336719513,0.020198000594973564
1749920266890043000,5.24504296875,-0.038694001734256744,0.23323699831962585,0.03716300055384636
1749920266900056600,5.255056640625,-0.04634200036525726,0.2281540036201477,0.03266799822449684
1749920266910069800,5.26506982421875,-0.07665800303220749,0.200080007314682,0.002893999917432666
1749920266920083200,5.275083251953125,-0.12555499374866486,0.15285000205039978,-0.0537399984896183
1749920266930096400,5.285096435546875,-0.17967599630355835,0.09195300191640854,-0.13288499414920807
1749920266940109800,5.29510986328125,-0.22948500514030457,0.03212700039148331,-0.2280620038509369
1749920266950123000,5.305123046875,-0.25726500153541565,-0.003665999975055456,-0.32124900817871094
1749920266960136400,5.315136474609375,-0.25957000255584717,-0.0030620000325143337,-0.39669299125671387
1749920266970150000,5.32514990234375,-0.2409829944372177,0.029025999829173088,-0.4400649964809418
1749920266980163000,5.3351630859375,-0.21519599854946136,0.07531899958848953,-0.44533100724220276
1749920266990176500,5.345176513671875,-0.19641800224781036,0.11586400121450424,-0.41257598996162415
1749920267000190000,5.35518994140625,-0.18305599689483643,0.13712799549102783,-0.349916011095047
1749920267010203100,5.365203125,-0.17013099789619446,0.13606999814510345,-0.27016401290893555
1749920267020216600,5.375216552734375,-0.15040600299835205,0.1194550022482872,-0.18107999861240387
1749920267030230000,5.38522998046875,-0.13034799695014954,0.09422300010919571,-0.08651000261306763
1749920267040243500,5.395243408203125,-0.1236879974603653,0.058779001235961914,0.00874600000679493
1749920267050256600,5.405256591796875,-0.1426199972629547,0.005458999890834093,0.0941459983587265
1749920267060269800,5.415269775390625,-0.1850920021533966,-0.0642009973526001,0.15780499577522278
1749920267070283500,5.425283447265625,-0.23847900331020355,-0.13582800328731537,0.19219599664211273
1749920267080296700,5.435296630859375,-0.2806769907474518,-0.19153399765491486,0.20304499566555023
1749920267090310100,5.44531005859375,-0.2917709946632385,-0.2110069990158081,0.19499699771404266
1749920267100323600,5.455323486328125,-0.256974995136261,-0.18170200288295746,0.17266100645065308
1749920267110337000,5.4653369140625,-0.1775519996881485,-0.10858699679374695,0.142535001039505
1749920267120350200,5.47535009765625,-0.08764500170946121,-0.017212999984622,0.11913400143384933
1749920267130363600,5.48536376953125,-0.04074700176715851,0.05690399929881096,0.11727000027894974
1749920267140377000,5.495377197265625,-0.05155999958515167,0.08408600091934204,0.13020800054073334
1749920267150390500,5.505390625,-0.08478999882936478,0.056926000863313675,0.1507740020751953
1749920267160403700,5.51540380859375,-0.11348199844360352,-0.01166400033980608,0.1674180030822754
1749920267170417200,5.525417236328125,-0.1343279927968979,-0.08773399889469147,0.15819500386714935
1749920267180430600,5.5354306640625,-0.13849100470542908,-0.14910000562667847,0.1255979984998703
1749920267190443800,5.54544384765625,-0.13281899690628052,-0.18797700107097626,0.08081399649381638
1749920267200457200,5.555457275390625,-0.10938400030136108,-0.20375700294971466,0.038665998727083206
1749920267210470700,5.565470703125,-0.06822600215673447,-0.1916709989309311,0.014077999629080296
1749920267220483800,5.57548388671875,-0.018379999324679375,-0.14893099665641785,0.013944000005722046
1749920267230497300,5.585497314453125,0.025645000860095024,-0.07911299914121628,0.028968000784516335
1749920267240510500,5.595510498046875,0.05646099895238876,0.0026599999982863665,0.04545599967241287
1749920267250524000,5.60552392578125,0.06770599633455276,0.07389000058174133,0.04887799918651581
1749920267260537300,5.615537353515625,0.0606129989027977,0.12187200039625168,0.03591100126504898
1749920267270550800,5.62555078125,0.04063799977302551,0.14563700556755066,0.016405999660491943
1749920267280564200,5.635564208984375,0.022038999944925308,0.1511780023574829,0.010250999592244625
1749920267290577700,5.64557763671875,0.012907000258564949,0.13473199307918549,0.029461000114679337
1749920267300590800,5.6555908203125,0.004707000218331814,0.08652500063180923,0.059640999883413315
1749920267310604000,5.66560400390625,-0.015898000448942184,0.004610000178217888,0.09725700318813324
1749920267320617500,5.675617431640625,-0.06130500137805939,-0.10836099833250046,0.1450980007648468
1749920267330631000,5.685630859375,-0.12303999811410904,-0.2492379993200302,0.20386600494384766
1749920267340644400,5.695644287109375,-0.1599150002002716,-0.3970569968223572,0.2709279954433441
1749920267350657800,5.70565771484375,-0.14951199293136597,-0.5246970057487488,0.35062599182128906
1749920267360671200,5.715671142578125,-0.09675300121307373,-0.5933520197868347,0.4410719871520996
1749920267370684400,5.725684326171875,-0.018664000555872917,-0.5870490074157715,0.5233880281448364
1749920267380697600,5.735697509765625,0.07113099843263626,-0.5133090019226074,0.5860490202903748
1749920267390711000,5.7457109375,0.14826799929141998,-0.3988359868526459,0.6280059814453125
1749920267400724500,5.755724365234375,0.2003999948501587,-0.27418598532676697,0.6482909917831421
1749920267410738000,5.765738037109375,0.21682299673557281,-0.163674995303154,0.6412799954414368
1749920267420751000,5.775751220703125,0.1985500007867813,-0.08267299830913544,0.6069409847259521
1749920267430764500,5.7857646484375,0.16184000670909882,-0.04321800172328949,0.5448650121688843
1749920267440778000,5.795778076171875,0.12711000442504883,-0.049323998391628265,0.4641120135784149
1749920267450791200,5.805791259765625,0.08623699843883514,-0.08032000064849854,0.36969301104545593
1749920267460804600,5.8158046875,0.0399399995803833,-0.12107899785041809,0.26057499647140503
1749920267470818000,5.825818115234375,0.008647999726235867,-0.16370899975299835,0.1588519960641861
1749920267480831200,5.835831298828125,-0.012298000045120716,-0.20023900270462036,0.08385799825191498
1749920267490844700,5.8458447265625,-0.03167299926280975,-0.21765300631523132,0.03816499933600426
1749920267500858000,5.855858154296875,-0.05745299905538559,-0.20821499824523926,0.020444000139832497
1749920267510871300,5.865871337890625,-0.08835499733686447,-0.1783829927444458,0.027400000020861626
1749920267520884700,5.875884765625,-0.11550399661064148,-0.14104600250720978,0.0549280010163784
1749920267530898200,5.885898193359375,-0.13115699589252472,-0.10709100216627121,0.10421299934387207
1749920267540911400,5.895911376953125,-0.12720799446105957,-0.0840120017528534,0.17862699925899506
1749920267550925000,5.905925048828125,-0.10610699653625488,-0.0714230015873909,0.2674640119075775
1749920267560938200,5.915938232421875,-0.07249999791383743,-0.06965100020170212,0.3545590043067932
1749920267570951400,5.925951416015625,-0.03061000071465969,-0.07825800031423569,0.4187439978122711
1749920267580964900,5.93596484375,0.013499000109732151,-0.09453000128269196,0.4425109922885895
1749920267590978300,5.945978271484375,0.0588110014796257,-0.10952500253915787,0.42225900292396545
1749920267600991500,5.955991455078125,0.1006150022149086,-0.10856200009584427,0.37892401218414307
1749920267611005000,5.9660048828125,0.1336749941110611,-0.07899600267410278,0.3200579881668091
1749920267621018000,5.97601806640625,0.16593299806118011,-0.01243900042027235,0.2408509999513626
1749920267631031800,5.98603173828125,0.20208199322223663,0.08811400085687637,0.1407109946012497
1749920267641045000,5.996044921875,0.22021199762821198,0.20188599824905396,0.02944199927151203
1749920267651058400,6.006058349609375,0.20630499720573425,0.3083510100841522,-0.08511099964380264
1749920267661071600,6.016071533203125,0.15757399797439575,0.3766059875488281,-0.19469399750232697
1749920267671085000,6.0260849609375,0.08462300151586533,0.390859991312027,-0.28223299980163574
1749920267681098500,6.036098388671875,-0.0025309999473392963,0.35610300302505493,-0.34224000573158264
1749920267691111700,6.046111572265625,-0.08304399996995926,0.28979799151420593,-0.3818820118904114
1749920267701125000,6.056125,-0.1458590030670166,0.20872700214385986,-0.408488005399704
1749920267711138600,6.066138671875,-0.17478600144386292,0.1260560005903244,-0.42185598611831665
1749920267721151700,6.07615185546875,-0.15738600492477417,0.051364999264478683,-0.42297399044036865
1749920267731165200,6.086165283203125,-0.10011500120162964,-0.0017480000387877226,-0.4110350012779236
1749920267741178400,6.096178466796875,-0.033932000398635864,-0.016402000561356544,-0.38284099102020264
1749920267751191800,6.10619189453125,0.028909999877214432,0.0009250000002793968,-0.33845099806785583
1749920267761205200,6.116205322265625,0.0814180001616478,0.03770599886775017,-0.26993098855018616
1749920267771218400,6.126218505859375,0.10905999690294266,0.07434599846601486,-0.18536199629306793
1749920267781231900,6.13623193359375,0.1213420033454895,0.09516700357198715,-0.10078900307416916
1749920267791245300,6.146245361328125,0.13052800297737122,0.08966899663209915,-0.02444699965417385
1749920267801258800,6.1562587890625,0.1447090059518814,0.05372999981045723,0.04301000013947487
1749920267811272200,6.166272216796875,0.16671599447727203,-0.006304000038653612,0.10246700048446655
1749920267821285600,6.17628564453125,0.19300399720668793,-0.083126001060009,0.15501199662685394
1749920267831298800,6.186298828125,0.21920600533485413,-0.1645669937133789,0.20419999957084656
1749920267841312000,6.19631201171875,0.23997600376605988,-0.23974399268627167,0.2529990077018738
1749920267851325700,6.20632568359375,0.2428019940853119,-0.29835399985313416,0.30684900283813477
1749920267861339000,6.2163388671875,0.21741700172424316,-0.33036598563194275,0.36308300495147705
1749920267871352300,6.226352294921875,0.16231399774551392,-0.3314569890499115,0.41190001368522644
1749920267881365500,6.236365478515625,0.08879800140857697,-0.30283498764038086,0.4421429932117462
1749920267891379000,6.24637890625,0.012237000279128551,-0.2497359961271286,0.4466089904308319
1749920267901392400,6.256392333984375,-0.0518839992582798,-0.18644699454307556,0.4247719943523407
1749920267911405600,6.266405517578125,-0.09730800241231918,-0.12604500353336334,0.381509006023407
1749920267921419000,6.2764189453125,-0.13045500218868256,-0.08302400261163712,0.32646799087524414
1749920267931432400,6.286432373046875,-0.16086700558662415,-0.06386400014162064,0.27317699790000916
1749920267941445600,6.296445556640625,-0.19598700106143951,-0.06539200246334076,0.22466999292373657
1749920267951459000,6.306458984375,-0.23538300395011902,-0.07836300134658813,0.1770550012588501
1749920267961472500,6.316472412109375,-0.2717519998550415,-0.09206099808216095,0.12568199634552002
1749920267971485700,6.326485595703125,-0.3002089858055115,-0.10403899848461151,0.0673459991812706
1749920267981499100,6.3364990234375,-0.31448298692703247,-0.11898399889469147,0.008035999722778797
1749920267991512300,6.34651220703125,-0.31913501024246216,-0.14230400323867798,-0.04362500086426735
1749920268001525800,6.35652587890625,-0.32860198616981506,-0.17424200475215912,-0.07927200198173523
1749920268011539200,6.366539306640625,-0.3570539951324463,-0.21134699881076813,-0.09150999784469604
1749920268021552600,6.376552734375,-0.41371700167655945,-0.24320200085639954,-0.08023100346326828
1749920268031565800,6.38656591796875,-0.49250200390815735,-0.26134300231933594,-0.06271599978208542
1749920268041579300,6.396579345703125,-0.5640220046043396,-0.26685500144958496,-0.0548969991505146
1749920268051592700,6.4065927734375,-0.6006789803504944,-0.26532599329948425,-0.05834700167179108
1749920268061606000,6.41660595703125,-0.5982739925384521,-0.2580380141735077,-0.07253500074148178
1749920268071619000,6.426619140625,-0.5625759959220886,-0.24160900712013245,-0.09588800370693207
1749920268081632500,6.436632568359375,-0.49679499864578247,-0.21326999366283417,-0.1287440061569214
1749920268091646000,6.44664599609375,-0.40107500553131104,-0.17508499324321747,-0.17641699314117432
1749920268101659400,6.456659423828125,-0.2750830054283142,-0.12806500494480133,-0.2321780025959015
1749920268111672600,6.466672607421875,-0.13151299953460693,-0.07238099724054337,-0.2851490080356598
1749920268121686000,6.47668603515625,0.006262999959290028,-0.00989300012588501,-0.327208012342453
1749920268131699500,6.486699462890625,0.12031500041484833,0.045777998864650726,-0.36149200797080994
1749920268141712600,6.496712646484375,0.20312899351119995,0.09784899652004242,-0.38655799627304077
1749920268151725800,6.506725830078125,0.25527098774909973,0.14627499878406525,-0.4071210026741028
1749920268161739300,6.5167392578125,0.27687200903892517,0.1806740015745163,-0.4208259880542755
1749920268171752700,6.526752685546875,0.27442601323127747,0.18195199966430664,-0.42566201090812683
1749920268181766100,6.53676611328125,0.25701799988746643,0.1418589949607849,-0.4172079861164093
1749920268191779300,6.546779296875,0.21889400482177734,0.06732700020074844,-0.38688600063323975
1749920268201792800,6.556792724609375,0.1438950002193451,-0.03520200029015541,-0.3341529965400696
1749920268211806000,6.566805908203125,0.04213999956846237,-0.16134199500083923,-0.26674699783325195
1749920268221819400,6.5768193359375,-0.03696399927139282,-0.29009300470352173,-0.19852200150489807
1749920268231832600,6.58683251953125,-0.06698399782180786,-0.3957720100879669,-0.1335349977016449
1749920268241846000,6.596845947265625,-0.048927001655101776,-0.46710100769996643,-0.0692870020866394
1749920268251859200,6.606859130859375,0.003826000029221177,-0.4997760057449341,0.0020940001122653484
1749920268261872600,6.61687255859375,0.08114299923181534,-0.5024200081825256,0.08537700027227402
1749920268271886000,6.626885986328125,0.16253399848937988,-0.4822539985179901,0.1814350038766861
1749920268281899300,6.636899169921875,0.2286050021648407,-0.44683900475502014,0.28254300355911255
1749920268291912700,6.64691259765625,0.2674790024757385,-0.4008229970932007,0.3775399923324585
1749920268301926100,6.656926025390625,0.2803820073604584,-0.34894099831581116,0.4529620110988617
1749920268311939300,6.666939208984375,0.2755100131034851,-0.2944749891757965,0.49855199456214905
1749920268321952800,6.676952880859375,0.26114100217819214,-0.24202799797058105,0.5105710029602051
1749920268331966200,6.68696630859375,0.23611100018024445,-0.19234499335289001,0.5057569742202759
1749920268341979400,6.6969794921875,0.19782699644565582,-0.13989399373531342,0.49641498923301697
1749920268351992800,6.706992919921875,0.13961899280548096,-0.0824190005660057,0.47949299216270447
1749920268362006300,6.71700634765625,0.07134400308132172,-0.0267340000718832,0.4543350040912628
1749920268372019700,6.727019775390625,0.018066000193357468,0.023048000410199165,0.43056899309158325
1749920268382033000,6.737032958984375,-0.013190999627113342,0.06479000300168991,0.4136640131473541
1749920268392046000,6.747046142578125,-0.051541998982429504,0.10156700015068054,0.3993090093135834
1749920268402059500,6.7570595703125,-0.13393700122833252,0.12913699448108673,0.36701199412345886
1749920268412073000,6.767072998046875,-0.25961199402809143,0.13683000206947327,0.2989090085029602
1749920268422086100,6.777086181640625,-0.4166559875011444,0.13008500635623932,0.1785379946231842
1749920268432099600,6.787099609375,-0.5974529981613159,0.131073996424675,0.013032999821007252
1749920268442113000,6.797113037109375,-0.7667350172996521,0.13863399624824524,-0.1915159970521927
1749920268452126200,6.807126220703125,-0.9049699902534485,0.14072400331497192,-0.4212360084056854
1749920268462139600,6.8171396484375,-0.9930199980735779,0.13843600451946259,-0.6530870199203491
1749920268472153000,6.827153076171875,-1.0187690258026123,0.14803500473499298,-0.8464210033416748
1749920268482166300,6.837166259765625,-0.9916110038757324,0.18450699746608734,-0.9682719707489014
1749920268492179700,6.8471796875,-0.9246190190315247,0.24388499557971954,-0.9982039928436279
1749920268502193200,6.857193115234375,-0.8123509883880615,0.3140510022640228,-0.9576650261878967
1749920268512206600,6.86720654296875,-0.6710140109062195,0.39750900864601135,-0.8783720135688782
1749920268522219800,6.8772197265625,-0.5478559732437134,0.48228201270103455,-0.7723529934883118
1749920268532233000,6.88723291015625,-0.4578219950199127,0.5580170154571533,-0.660148024559021
1749920268542246400,6.897246337890625,-0.4016909897327423,0.6295220255851746,-0.5602959990501404
1749920268552259800,6.907259765625,-0.37370601296424866,0.6953439712524414,-0.4845010042190552
1749920268562273000,6.91727294921875,-0.3757709860801697,0.756430983543396,-0.4324199855327606
1749920268572286500,6.927286376953125,-0.4036630094051361,0.8162189722061157,-0.4008429944515228
1749920268582299600,6.937299560546875,-0.4508120119571686,0.8764340281486511,-0.392628014087677
1749920268592313000,6.94731298828125,-0.4925540089607239,0.9350749850273132,-0.41683000326156616
1749920268602326300,6.957326171875,-0.5034739971160889,0.9874169826507568,-0.46964600682258606
1749920268612339700,6.967339599609375,-0.48533201217651367,1.0273100137710571,-0.5350750088691711
1749920268622353200,6.977353271484375,-0.4479610025882721,1.0508610010147095,-0.5934190154075623
1749920268632366600,6.98736669921875,-0.3836509883403778,1.0538690090179443,-0.6343479752540588
1749920268642379800,6.9973798828125,-0.3021329939365387,1.0362290143966675,-0.6503009796142578
1749920268652393200,7.007393310546875,-0.2154659926891327,1.0025140047073364,-0.6297990083694458
1749920268662406700,7.01740673828125,-0.14447200298309326,0.9602199792861938,-0.5674300193786621
1749920268672419800,7.027419921875,-0.11934500187635422,0.9172539710998535,-0.4762890040874481
1749920268682433000,7.03743310546875,-0.15306399762630463,0.8867130279541016,-0.37036898732185364
1749920268692446500,7.047446533203125,-0.22013400495052338,0.8695589900016785,-0.2505820095539093
1749920268702460000,7.0574599609375,-0.2831119894981384,0.8661140203475952,-0.11089000105857849
1749920268712473000,7.06747314453125,-0.32953599095344543,0.8818100094795227,0.04689500108361244
1749920268722486500,7.077486572265625,-0.34777700901031494,0.9128170013427734,0.2237520068883896
1749920268732499700,7.087499755859375,-0.32335999608039856,0.9477109909057617,0.4056529998779297
1749920268742513200,7.09751318359375,-0.27471399307250977,0.9765840172767639,0.5822020173072815
1749920268752526600,7.107526611328125,-0.2011280059814453,0.9979590177536011,0.7480210065841675
1749920268762539800,7.117539794921875,-0.1193389967083931,1.0114829540252686,0.8999590277671814
1749920268772553000,7.127552978515625,-0.06201599910855293,1.020387053489685,1.0247009992599487
1749920268782566400,7.13756640625,-0.038630999624729156,1.0281480550765991,1.095700979232788
1749920268792579800,7.147579833984375,-0.023370999842882156,1.0484670400619507,1.0758860111236572
1749920268802593300,7.15759326171875,-0.005224999971687794,1.0969640016555786,0.9737150073051453
1749920268812606500,7.1676064453125,0.010886999778449535,1.1632790565490723,0.8285800218582153
1749920268822620000,7.177619873046875,0.024032000452280045,1.2375919818878174,0.6575009822845459
1749920268832633000,7.187633056640625,0.02548299916088581,1.304703950881958,0.46873098611831665
1749920268842646500,7.197646484375,0.012916999869048595,1.340451955795288,0.27353501319885254
1749920268852659700,7.20765966796875,-0.015076999552547932,1.3314460515975952,0.09024299681186676
1749920268862673200,7.217673095703125,-0.047495000064373016,1.2779539823532104,-0.07343599945306778
1749920268872686600,7.2276865234375,-0.07426100224256516,1.1865090131759644,-0.22014999389648438
1749920268882699800,7.23769970703125,-0.09101200103759766,1.0647679567337036,-0.3461399972438812
1749920268892713000,7.247712890625,-0.10549800097942352,0.9358339905738831,-0.4400370121002197
1749920268902726400,7.257726318359375,-0.12410999834537506,0.8266860246658325,-0.4905099868774414
1749920268912739800,7.26773974609375,-0.15068399906158447,0.7431349754333496,-0.5109050273895264
1749920268922753000,7.2777529296875,-0.18777599930763245,0.677187979221344,-0.5439479947090149
1749920268932766500,7.287766357421875,-0.24771399796009064,0.6227059960365295,-0.6169899702072144
1749920268942779600,7.297779541015625,-0.3196679949760437,0.5718420147895813,-0.7219669818878174
1749920268952793000,7.30779296875,-0.37008100748062134,0.5277680158615112,-0.8256760239601135
1749920268962806500,7.317806640625,-0.38838499784469604,0.5052130222320557,-0.8990669846534729
1749920268972819700,7.32781982421875,-0.3844499886035919,0.5005130171775818,-0.9243890047073364
1749920268982833200,7.337833251953125,-0.37472501397132874,0.4894750118255615,-0.8945279717445374
1749920268992846300,7.347846435546875,-0.38335299491882324,0.46800199151039124,-0.8283089995384216
1749920269002859800,7.35785986328125,-0.3975990116596222,0.43116000294685364,-0.7388150095939636
1749920269012873000,7.367873046875,-0.39143699407577515,0.372063010931015,-0.6442989706993103
1749920269022886400,7.377886474609375,-0.3597559928894043,0.28769001364707947,-0.5619829893112183
1749920269032899800,7.38789990234375,-0.3028090000152588,0.18654599785804749,-0.5055149793624878
1749920269042913000,7.3979130859375,-0.2308180034160614,0.08219899982213974,-0.47234299778938293
1749920269052926500,7.407926513671875,-0.172652006149292,-0.015259999781847,-0.4396759867668152
1749920269062939600,7.417939697265625,-0.13812200725078583,-0.09699500352144241,-0.4024980068206787
1749920269072953000,7.427953125,-0.11177399754524231,-0.15184800326824188,-0.38067299127578735
1749920269082966500,7.437966552734375,-0.08648300170898438,-0.17632099986076355,-0.383897989988327
1749920269092979700,7.447979736328125,-0.07071799784898758,-0.1795559972524643,-0.3985449969768524
1749920269102993000,7.457992919921875,-0.06442700326442719,-0.16828900575637817,-0.40215399861335754
1749920269113006300,7.46800634765625,-0.057927001267671585,-0.14203700423240662,-0.3951449990272522
1749920269123019800,7.478019775390625,-0.04678799957036972,-0.10245700180530548,-0.3707680106163025
1749920269133033000,7.488032958984375,-0.028490999713540077,-0.04997900128364563,-0.316087007522583
1749920269143046400,7.49804638671875,0.01142599992454052,0.010708999820053577,-0.2250320017337799
1749920269153059800,7.508059814453125,0.06870900094509125,0.0743279978632927,-0.11458399891853333
1749920269163073000,7.518072998046875,0.10438299924135208,0.16499899327754974,-0.05208300054073334
1749920269173086500,7.52808642578125,0.11823900043964386,0.24123799800872803,-0.052264999598264694
1749920269183099600,7.538099609375,0.1262580007314682,0.26117798686027527,-0.05521899834275246
1749920269193112800,7.54811279296875,0.1234159991145134,0.2242009937763214,-0.02840599976480007
1749920269203126500,7.55812646484375,0.10907600075006485,0.14118100702762604,0.002302000066265464
1749920269213139700,7.5681396484375,0.11094699800014496,0.037925999611616135,0.020356999710202217
1749920269223153000,7.57815283203125,0.15732799470424652,-0.06421300023794174,0.07100100070238113
1749920269233166300,7.588166259765625,0.24314600229263306,-0.14324399828910828,0.17293499410152435
1749920269243179800,7.5981796875,0.3250809907913208,-0.18163299560546875,0.2849369943141937
1749920269253193000,7.60819287109375,0.36873000860214233,-0.18757200241088867,0.36036399006843567
1749920269263206400,7.618206298828125,0.3798980116844177,-0.1856829971075058,0.38629499077796936
1749920269273219600,7.628219482421875,0.384427011013031,-0.17746800184249878,0.3537909984588623
1749920269283233000,7.63823291015625,0.40049999952316284,-0.15378600358963013,0.26477301120758057
1749920269293246500,7.64824658203125,0.4447709918022156,-0.12239000201225281,0.14018400013446808
1749920269303259600,7.658259765625,0.49774500727653503,-0.08686699718236923,-0.00979700032621622
1749920269313272800,7.66827294921875,0.5188639760017395,-0.04082699865102768,-0.17358100414276123
1749920269323286500,7.67828662109375,0.5027499794960022,0.012858999893069267,-0.3274640142917633
1749920269333299700,7.6882998046875,0.45072299242019653,0.06046999990940094,-0.4341619908809662
1749920269343313000,7.69831298828125,0.3803060054779053,0.09453599900007248,-0.4760409891605377
1749920269353326300,7.708326416015625,0.31905698776245117,0.12057600170373917,-0.4725149869918823
1749920269363339800,7.71833984375,0.28442299365997314,0.14255699515342712,-0.4464550018310547
1749920269373353000,7.72835302734375,0.2686539888381958,0.1529269963502884,-0.4072819948196411
1749920269383366100,7.7383662109375,0.2671490013599396,0.14455999433994293,-0.36751699447631836
1749920269393379600,7.748379638671875,0.26313599944114685,0.11328600347042084,-0.3349379897117615
1749920269403393000,7.75839306640625,0.24568699300289154,0.0557049997150898,-0.31640899181365967
1749920269413406200,7.76840625,0.21448999643325806,-0.025919999927282333,-0.3137170076370239
1749920269423419600,7.778419677734375,0.17376300692558289,-0.12710300087928772,-0.31628701090812683
1749920269433432800,7.788432861328125,0.13371099531650543,-0.2409289926290512,-0.321025013923645
1749920269443446300,7.7984462890625,0.08245199918746948,-0.3470570147037506,-0.34084001183509827
1749920269453459500,7.80845947265625,0.032698001712560654,-0.43687599897384644,-0.3743770122528076
1749920269463473000,7.818472900390625,0.019902000203728676,-0.5376530289649963,-0.3701150119304657
1749920269473486300,7.828486328125,0.030796999111771584,-0.6125289797782898,-0.31792598962783813
1749920269483499800,7.838499755859375,0.043473001569509506,-0.6226940155029297,-0.27726098895072937
1749920269493513000,7.848512939453125,0.06146499887108803,-0.581089973449707,-0.27537599205970764
1749920269503526100,7.858526123046875,0.08664900064468384,-0.5157570242881775,-0.27795299887657166
1749920269513539300,7.868539306640625,0.10832899808883667,-0.44695401191711426,-0.25536999106407166
1749920269523553000,7.878552978515625,0.11469099670648575,-0.37984499335289,-0.23111100494861603
1749920269533566200,7.888566162109375,0.11480099707841873,-0.32986098527908325,-0.21330000460147858
1749920269543579400,7.898579345703125,0.12663599848747253,-0.3076229989528656,-0.18851600587368011
1749920269553592800,7.9085927734375,0.14197799563407898,-0.3061769902706146,-0.16364499926567078
1749920269563606300,7.918606201171875,0.14116400480270386,-0.31957700848579407,-0.1514749974012375
1749920269573619500,7.928619384765625,0.11701700091362,-0.34836500883102417,-0.14812199771404266
1749920269583633000,7.9386328125,0.07937599718570709,-0.389272004365921,-0.14684399962425232
1749920269593646000,7.94864599609375,0.043069999665021896,-0.4377039968967438,-0.1342030018568039
1749920269603659500,7.958659423828125,0.013387000188231468,-0.4815570116043091,-0.10097700357437134
1749920269613673000,7.9686728515625,0.0008769999840296805,-0.5133190155029297,-0.048604000359773636
1749920269623686100,7.97868603515625,0.00976799987256527,-0.5262789726257324,0.011938000097870827
1749920269633699300,7.98869921875,0.03303299844264984,-0.5187060236930847,0.06566999852657318
1749920269643712800,7.998712646484375,0.05528400093317032,-0.49387800693511963,0.09658999741077423
1749920269653726200,8.008726318359376,0.06504099816083908,-0.4609909951686859,0.08940300345420837
1749920269663739400,8.018739501953124,0.06160899996757507,-0.43366000056266785,0.04751500114798546
1749920269673752800,8.0287529296875,0.05241600051522255,-0.42411598563194275,-0.005783999804407358
1749920269683766300,8.038766357421874,0.04001700133085251,-0.43952998518943787,-0.046445999294519424
1749920269693779500,8.048779541015625,0.0322050005197525,-0.4766339957714081,-0.0808899998664856
1749920269703792600,8.058792724609376,0.02684899978339672,-0.5290449857711792,-0.11840599775314331
1749920269713806300,8.068806396484375,0.02435299940407276,-0.5954269766807556,-0.15091000497341156
1749920269723819500,8.078819580078125,0.01935500092804432,-0.6695380210876465,-0.17984899878501892
1749920269733832700,8.088832763671874,0.00546000013127923,-0.7438939809799194,-0.20810699462890625
1749920269743846100,8.09884619140625,-0.011145999655127525,-0.8124439716339111,-0.2273309975862503
1749920269753859300,8.108859375,-0.029539000242948532,-0.8524720072746277,-0.233706995844841
1749920269763872800,8.118872802734375,-0.04080500081181526,-0.8420389890670776,-0.21601399779319763
1749920269773886000,8.128885986328125,-0.03666599839925766,-0.7905949950218201,-0.16578899323940277
1749920269783899400,8.1388994140625,-0.014967000111937523,-0.7151550054550171,-0.0844929963350296
1749920269793912800,8.148912841796875,0.021289000287652016,-0.6242219805717468,0.010107000358402729
1749920269803926000,8.158926025390626,0.061211999505758286,-0.5240859985351562,0.08527299761772156
1749920269813939500,8.168939453125,0.09327799826860428,-0.4315919876098633,0.12778599560260773
1749920269823952600,8.17895263671875,0.11395099759101868,-0.3642989993095398,0.15036800503730774
1749920269833965800,8.1889658203125,0.12589199841022491,-0.32419198751449585,0.17117899656295776
1749920269843979300,8.198979248046875,0.1305299997329712,-0.30474698543548584,0.20410799980163574
1749920269853992700,8.20899267578125,0.12926000356674194,-0.30323800444602966,0.25337299704551697
1749920269864006000,8.219005859375,0.13015900552272797,-0.31345799565315247,0.3080430030822754
1749920269874019300,8.229019287109375,0.13043099641799927,-0.3321689963340759,0.36582499742507935
1749920269884032500,8.239032470703124,0.12758499383926392,-0.356332004070282,0.4246920049190521
1749920269894046000,8.2490458984375,0.12307299673557281,-0.37713000178337097,0.475616991519928
1749920269904059100,8.25905908203125,0.11767599731683731,-0.387129008769989,0.5074819922447205
1749920269914072600,8.269072509765625,0.10984600335359573,-0.38210299611091614,0.522695004940033
1749920269924085800,8.279085693359375,0.09304899722337723,-0.36231499910354614,0.5284810066223145
1749920269934099200,8.28909912109375,0.06690499931573868,-0.33454298973083496,0.5273640155792236
1749920269944112600,8.299112548828125,0.029391000047326088,-0.30919700860977173,0.5132539868354797
1749920269954125800,8.309125732421874,-0.01255900040268898,-0.30520200729370117,0.4851109981536865
1749920269964139000,8.319138916015625,-0.04892899841070175,-0.3252449929714203,0.44408100843429565
1749920269974152400,8.32915234375,-0.07470499724149704,-0.3553889989852905,0.3772270083427429
1749920269984166000,8.339165771484375,-0.09602800011634827,-0.3840380012989044,0.29016199707984924
1749920269994179000,8.349178955078125,-0.11264000087976456,-0.403764009475708,0.2120179980993271
1749920270004192300,8.359192138671874,-0.12222599983215332,-0.40039199590682983,0.16552799940109253
1749920270014205700,8.369205810546875,-0.12734100222587585,-0.35332199931144714,0.14768199622631073
1749920270024219100,8.37921923828125,-0.12300600111484528,-0.2526499927043915,0.1429159939289093
1749920270034232300,8.389232421875,-0.1084280014038086,-0.10756400227546692,0.14574499428272247
1749920270044245500,8.39924560546875,-0.08470000326633453,0.058685000985860825,0.1570100039243698
1749920270054259000,8.409259033203124,-0.054926998913288116,0.2098820060491562,0.17298099398612976
1749920270064272400,8.4192724609375,-0.0326399989426136,0.31008899211883545,0.17975600063800812
1749920270074285600,8.42928564453125,-0.017109999433159828,0.34639298915863037,0.17061899602413177
1749920270084299000,8.439299072265625,-0.006345999892801046,0.32531699538230896,0.15175500512123108
1749920270094312200,8.449312255859375,-0.003607999999076128,0.26236099004745483,0.1398559957742691
1749920270104325600,8.45932568359375,-0.010228999890387058,0.18294499814510345,0.14482900500297546
1749920270114338800,8.4693388671875,-0.022931000217795372,0.11302900314331055,0.1618950068950653
1749920270124352300,8.479352294921876,-0.04433000087738037,0.06980100274085999,0.1752299964427948
1749920270134365700,8.48936572265625,-0.07811199873685837,0.05169200152158737,0.16489200294017792
1749920270144379000,8.49937890625,-0.11580099910497665,0.047609999775886536,0.1301259994506836
1749920270154392300,8.509392333984374,-0.1456959992647171,0.0569860003888607,0.084818996489048
1749920270164405500,8.519405517578125,-0.16156800091266632,0.0861940011382103,0.033698998391628265
1749920270174419000,8.5294189453125,-0.17484000325202942,0.13075800240039825,-0.03765200078487396
1749920270184432400,8.539432373046875,-0.19886499643325806,0.17062200605869293,-0.14204299449920654
1749920270194445600,8.549445556640626,-0.22529900074005127,0.1851470023393631,-0.2600950002670288
1749920270204458800,8.559458740234374,-0.23399700224399567,0.1712300032377243,-0.3554309904575348
1749920270214472200,8.56947216796875,-0.21822699904441833,0.13596199452877045,-0.4090990126132965
1749920270224485600,8.579485595703124,-0.19718199968338013,0.1012360006570816,-0.43479400873184204
1749920270234498800,8.589498779296875,-0.1826460063457489,0.08169099688529968,-0.446476012468338
1749920270244512000,8.599511962890626,-0.16220499575138092,0.07773800194263458,-0.4304110109806061
1749920270254525400,8.609525390625,-0.127018004655838,0.10554199665784836,-0.3756130039691925
1749920270264539000,8.619538818359375,-0.08699499815702438,0.1792439967393875,-0.29755398631095886
1749920270274552000,8.629552001953124,-0.05586899816989899,0.2910049855709076,-0.21231399476528168
1749920270284565200,8.639565185546875,-0.03575599938631058,0.41342198848724365,-0.13530999422073364
1749920270294578700,8.64957861328125,-0.0263069998472929,0.5139099955558777,-0.08156099915504456
1749920270304592100,8.659592041015625,-0.016704000532627106,0.5688899755477905,-0.05592599883675575
1749920270314605300,8.669605224609375,0.00266100000590086,0.5685660243034363,-0.05412599816918373
1749920270324618500,8.679618408203124,0.022495999932289124,0.5135899782180786,-0.07101000100374222
1749920270334632000,8.6896318359375,0.029743999242782593,0.4160430133342743,-0.10660699754953384
1749920270344645400,8.699645263671876,0.02162499912083149,0.2972089946269989,-0.1501529961824417
1749920270354658600,8.709658447265625,-0.0001939999929163605,0.1835629940032959,-0.1821800023317337
1749920270364672000,8.719672119140625,-0.026458999142050743,0.10062599927186966,-0.19209499657154083
1749920270374685200,8.729685302734374,-0.05002500116825104,0.06996600329875946,-0.19262200593948364
1749920270384698400,8.739698486328125,-0.06830299645662308,0.09568499773740768,-0.19610700011253357
1749920270394711800,8.7497119140625,-0.07258299738168716,0.1611430048942566,-0.20732399821281433
1749920270404725200,8.759725341796875,-0.05704500153660774,0.23981399834156036,-0.21776500344276428
1749920270414738700,8.76973876953125,-0.03146199882030487,0.3182010054588318,-0.2258629947900772
1749920270424751900,8.779751953125,-0.0025679999962449074,0.389147013425827,-0.23368200659751892
1749920270434765000,8.78976513671875,0.024375999346375465,0.4478830099105835,-0.24032099545001984
1749920270444778500,8.799778564453124,0.04491199925541878,0.4891889989376068,-0.2522059977054596
1749920270454791700,8.809791748046875,0.05572199821472168,0.507614016532898,-0.2750599980354309
1749920270464805000,8.81980517578125,0.06002800166606903,0.5026249885559082,-0.3105809986591339
1749920270474818300,8.829818359375,0.07477299869060516,0.47992798686027527,-0.34206199645996094
1749920270484831700,8.839831787109375,0.10476499795913696,0.4547460079193115,-0.3550510108470917
1749920270494845000,8.849844970703124,0.13112099468708038,0.44060298800468445,-0.34935399889945984
1749920270504858400,8.8598583984375,0.11958099901676178,0.43324699997901917,-0.32366299629211426
1749920270514871600,8.86987158203125,0.06125300005078316,0.4240419864654541,-0.2782759964466095
1749920270524885000,8.879885009765625,-0.0009239999926649034,0.39963099360466003,-0.2164900004863739
1749920270534898200,8.889898193359375,-0.024170000106096268,0.36292698979377747,-0.1435689926147461
1749920270544911600,8.89991162109375,-0.013845999725162983,0.33011800050735474,-0.08165500313043594
1749920270554925000,8.909925048828125,-0.0008609999786131084,0.3025290071964264,-0.03921100124716759
1749920270564938200,8.919938232421876,0.0040350002236664295,0.2708809971809387,-0.005127999931573868
1749920270574951400,8.929951416015625,0.018679000437259674,0.23049600422382355,0.03988400101661682
1749920270584964600,8.939964599609375,0.04903599992394447,0.19276000559329987,0.09524299949407578
1749920270594978000,8.94997802734375,0.0864109992980957,0.17329800128936768,0.15325599908828735
1749920270604991500,8.959991455078125,0.12001299858093262,0.17879700660705566,0.2096260040998459
1749920270615004700,8.970004638671876,0.1308699995279312,0.20694699883460999,0.25829800963401794
1749920270625018000,8.98001806640625,0.11714600026607513,0.25468501448631287,0.29551100730895996
1749920270635031300,8.99003125,0.10463400185108185,0.3185420036315918,0.33243200182914734
1749920270645044700,9.000044677734374,0.11990799754858017,0.38820600509643555,0.37186598777770996
1749920270655058000,9.010057861328125,0.1604740023612976,0.45268499851226807,0.3984310030937195
1749920270665071400,9.0200712890625,0.20205700397491455,0.5001819729804993,0.40308499336242676
1749920270675084500,9.03008447265625,0.21668000519275665,0.523622989654541,0.38446199893951416
1749920270685098000,9.040097900390625,0.21241700649261475,0.5203480124473572,0.34836700558662415
1749920270695111400,9.050111328125,0.2007710039615631,0.489764004945755,0.31272199749946594
1749920270705124600,9.06012451171875,0.15595600008964539,0.441866010427475,0.2704809904098511
1749920270715137800,9.0701376953125,0.08141300082206726,0.3798609972000122,0.2251950055360794
1749920270725151200,9.080151123046875,0.009903999976813793,0.3081659972667694,0.20275700092315674
1749920270735164400,9.090164306640625,-0.046535998582839966,0.23727500438690186,0.22094300389289856
1749920270745177900,9.100177734375,-0.08523999899625778,0.182669997215271,0.27890700101852417
1749920270755191000,9.11019091796875,-0.11416099965572357,0.15801100432872772,0.349029004573822
1749920270765204500,9.12020458984375,-0.14629900455474854,0.16228899359703064,0.4136810004711151
1749920270775217700,9.1302177734375,-0.16568900644779205,0.18314200639724731,0.4803430140018463
1749920270785231000,9.140231201171876,-0.1639000028371811,0.21316799521446228,0.56597900390625
1749920270795244300,9.150244384765625,-0.146697998046875,0.25423601269721985,0.6441270112991333
1749920270805257500,9.160257568359375,-0.10541900247335434,0.30656298995018005,0.6656579971313477
1749920270815271200,9.170271240234374,-0.03242899850010872,0.36093801259994507,0.6128429770469666
1749920270825284400,9.180284423828125,0.048500001430511475,0.4063529968261719,0.5128759741783142
1749920270835297500,9.190297607421876,0.1048159971833229,0.43623700737953186,0.39491400122642517
1749920270845310700,9.200310791015625,0.12650099396705627,0.4483970105648041,0.2750700116157532
1749920270855324400,9.210324462890625,0.13229399919509888,0.4451639950275421,0.16974499821662903
1749920270865337600,9.220337646484374,0.13328799605369568,0.432873010635376,0.0904029980301857
1749920270875350800,9.230350830078125,0.12201700359582901,0.42201900482177734,0.03031099960207939
1749920270885364000,9.240364013671876,0.09869900345802307,0.4200400114059448,-0.014185000211000443
1749920270895377400,9.25037744140625,0.0782570019364357,0.42841601371765137,-0.048186998814344406
1749920270905390800,9.260390869140625,0.06490399688482285,0.4402250051498413,-0.07500500231981277
1749920270915404000,9.270404052734374,0.06622400134801865,0.4421379864215851,-0.09575700014829636
1749920270925417200,9.280417236328125,0.0856039971113205,0.4233019948005676,-0.11146499961614609
1749920270935430700,9.2904306640625,0.10404500365257263,0.379054993391037,-0.12990599870681763
1749920270945444000,9.300444091796875,0.09709099680185318,0.3112249970436096,-0.1607470065355301
1749920270955457300,9.310457275390625,0.06803199648857117,0.22561199963092804,-0.2044460028409958
1749920270965470500,9.320470458984374,0.03840000182390213,0.12513600289821625,-0.2553659975528717
1749920270975484200,9.330484130859375,0.0274640005081892,0.016598999500274658,-0.2998049855232239
1749920270985497300,9.340497314453126,0.0206300001591444,-0.09129899740219116,-0.33459100127220154
1749920270995510500,9.350510498046875,0.007182000204920769,-0.1878329962491989,-0.3636319935321808
1749920271005524000,9.36052392578125,0.011620000004768372,-0.2670400142669678,-0.37696999311447144
1749920271015537200,9.370537109375,0.042559001594781876,-0.32401999831199646,-0.3800419867038727
1749920271025550600,9.380550537109375,0.0810369998216629,-0.3556230068206787,-0.38192498683929443
1749920271035563800,9.390563720703126,0.11980099976062775,-0.35753700137138367,-0.3930709958076477
1749920271045577200,9.4005771484375,0.1508750021457672,-0.3346160054206848,-0.40933001041412354
1749920271055590400,9.41059033203125,0.1780329942703247,-0.30497801303863525,-0.40088701248168945
1749920271065603800,9.420603759765624,0.21437999606132507,-0.2831200063228607,-0.3541640043258667
1749920271075617000,9.430616943359375,0.23930799961090088,-0.26633501052856445,-0.2994849979877472
1749920271085630200,9.440630126953126,0.24462999403476715,-0.2524609863758087,-0.2692109942436218
1749920271095643600,9.4506435546875,0.23969300091266632,-0.24998000264167786,-0.2553989887237549
1749920271105656800,9.46065673828125,0.22591200470924377,-0.26236099004745483,-0.24690400063991547
1749920271115670300,9.470670166015625,0.2011599987745285,-0.2881630063056946,-0.23838500678539276
1749920271125683700,9.48068359375,0.1652050018310547,-0.3271290063858032,-0.22460900247097015
1749920271135697000,9.49069677734375,0.12501299381256104,-0.3779650032520294,-0.20471400022506714
1749920271145710300,9.50071044921875,0.09349799901247025,-0.4351699948310852,-0.17724399268627167
1749920271155723500,9.5107236328125,0.06841400265693665,-0.49089398980140686,-0.15667100250720978
1749920271165736700,9.52073681640625,0.046622999012470245,-0.543071985244751,-0.1578969955444336
1749920271175750100,9.530750244140625,0.026507999747991562,-0.5943899750709534,-0.17969399690628052
1749920271185763300,9.540763427734374,0.007799000013619661,-0.6470639705657959,-0.21423999965190887
1749920271195776500,9.550776611328125,-0.017829999327659607,-0.7022920250892639,-0.24558000266551971
1749920271205790000,9.5607900390625,-0.05467800050973892,-0.7540079951286316,-0.2746109962463379
1749920271215803400,9.570803466796875,-0.09686200320720673,-0.7983819842338562,-0.2996880114078522
1749920271225816600,9.580816650390625,-0.13501399755477905,-0.8306249976158142,-0.3118950128555298
1749920271235829800,9.590829833984374,-0.16521599888801575,-0.8450549840927124,-0.31176498532295227
1749920271245843000,9.600843017578125,-0.18982499837875366,-0.8355290293693542,-0.2983179986476898
1749920271255856400,9.6108564453125,-0.21142800152301788,-0.8031370043754578,-0.26623600721359253
1749920271265869800,9.620869873046875,-0.22577300667762756,-0.7522600293159485,-0.21024200320243835
1749920271275883000,9.630883056640625,-0.22575700283050537,-0.6881899833679199,-0.12886500358581543
1749920271285896200,9.640896240234374,-0.20416399836540222,-0.6092900037765503,-0.03350000083446503
1749920271295910000,9.650909912109375,-0.17009900510311127,-0.516290009021759,0.052685998380184174
1749920271305923000,9.660923095703126,-0.1327590048313141,-0.4187780022621155,0.11946599930524826
1749920271315936300,9.670936279296875,-0.10052499920129776,-0.3280630111694336,0.173335999250412
1749920271325949700,9.68094970703125,-0.07901500165462494,-0.25389501452445984,0.20941099524497986
1749920271335963100,9.690963134765624,-0.06512700021266937,-0.20598900318145752,0.22594599425792694
1749920271345976300,9.700976318359375,-0.05369799956679344,-0.18605199456214905,0.21504199504852295
1749920271355989500,9.710989501953126,-0.03855299949645996,-0.1916169971227646,0.1690959930419922
1749920271366003000,9.7210029296875,-0.025989999994635582,-0.21892699599266052,0.09243600070476532
1749920271376016400,9.731016357421876,-0.022197000682353973,-0.26458901166915894,0.0042940001003444195
1749920271386029600,9.741029541015624,-0.025801999494433403,-0.32097500562667847,-0.07100799679756165
1749920271396042800,9.751042724609375,-0.03290000185370445,-0.3685089945793152,-0.11982099711894989
1749920271406056400,9.761056396484374,-0.04119599983096123,-0.39019298553466797,-0.13697299361228943
1749920271416069600,9.771069580078125,-0.049938999116420746,-0.3809159994125366,-0.12649700045585632
1749920271426082800,9.781082763671876,-0.059487998485565186,-0.3485940098762512,-0.10445400327444077
1749920271436096000,9.791095947265624,-0.06929799914360046,-0.3093929886817932,-0.08969300240278244
1749920271446109400,9.801109375,-0.07829499989748001,-0.2853110134601593,-0.09179999679327011
1749920271456123000,9.811122802734374,-0.0879179984331131,-0.2916469871997833,-0.10172399878501892
1749920271466136000,9.821135986328125,-0.09580899775028229,-0.32729798555374146,-0.11336699873209
1749920271476149200,9.831149169921876,-0.08603200316429138,-0.38276100158691406,-0.11584900319576263
1749920271486162700,9.84116259765625,-0.053119998425245285,-0.4429030120372772,-0.09184899926185608
1749920271496176000,9.851176025390625,-0.010700000450015068,-0.48131000995635986,-0.032680999487638474
1749920271506189300,9.861189208984374,0.01819000020623207,-0.47207000851631165,0.0632380023598671
1749920271516202500,9.871202392578125,0.024702999740839005,-0.4096420109272003,0.18338899314403534
1749920271526216000,9.8812158203125,0.021167000755667686,-0.3159019947052002,0.30823999643325806
1749920271536229000,9.89122900390625,0.019168000668287277,-0.22392700612545013,0.41897401213645935
1749920271546242600,9.90124267578125,0.01820800080895424,-0.15851899981498718,0.4958780109882355
1749920271556255700,9.911255859375,0.019610000774264336,-0.12298499792814255,0.5201789736747742
1749920271566269000,9.92126904296875,0.03375500068068504,-0.11345499753952026,0.486054003238678
1749920271576282400,9.931282470703126,0.06665199995040894,-0.1226859986782074,0.40786799788475037
1749920271586295800,9.9412958984375,0.10720700025558472,-0.14143599569797516,0.31384599208831787
1749920271596309000,9.95130908203125,0.1423330008983612,-0.15598900616168976,0.22975200414657593
1749920271606322200,9.961322265625,0.1691560000181198,-0.15473400056362152,0.16547800600528717
1749920271616335600,9.971335693359375,0.18263399600982666,-0.1394300013780594,0.12491299957036972
1749920271626348800,9.981348876953126,0.17879599332809448,-0.11652400344610214,0.09539700299501419
1749920271636362200,9.9913623046875,0.15797699987888336,-0.096220001578331,0.0696130022406578
1749920271646375400,10.00137548828125,0.12369900196790695,-0.08687199652194977,0.05792500078678131
1749920271656388600,10.011388671875,0.07827399671077728,-0.08635299652814865,0.0633229985833168
1749920271666402000,10.021402099609375,0.03305799886584282,-0.08657599985599518,0.08289899677038193
1749920271676415500,10.03141552734375,-0.00202700006775558,-0.07985900342464447,0.10641399770975113
1749920271686428700,10.0414287109375,-0.015475999563932419,-0.06344100087881088,0.1185859963297844
1749920271696441900,10.05144189453125,-0.0049749999307096004,-0.04596399888396263,0.10789299756288528
1749920271706455300,10.061455322265624,0.01696000061929226,-0.036389000713825226,0.06811899691820145
1749920271716468700,10.07146875,0.03208300098776817,-0.03319700062274933,0.0027799999807029963
1749920271726482000,10.08148193359375,0.03824400156736374,-0.03160100057721138,-0.0576619990170002
1749920271736495000,10.0914951171875,0.03423500061035156,-0.027834000065922737,-0.08762899786233902
1749920271746508300,10.10150830078125,0.01647000014781952,-0.010072000324726105,-0.0764240026473999
1749920271756522000,10.11152197265625,0.0013650000328198075,0.03337699919939041,-0.03936700150370598
1749920271766535200,10.12153515625,-0.0010140000376850367,0.09859099984169006,0.011792999692261219
1749920271776548400,10.13154833984375,0.0007200000109151006,0.17809000611305237,0.055977001786231995
1749920271786561500,10.1415615234375,-0.0067010000348091125,0.2561799883842468,0.07893899828195572
1749920271796575200,10.1515751953125,-0.020493000745773315,0.3137359917163849,0.06379000097513199
1749920271806588400,10.16158837890625,-0.023289000615477562,0.33181700110435486,0.0002749999985098839
1749920271816601600,10.1716015625,-0.006244999822229147,0.3054850101470947,-0.09931399673223495
1749920271826614800,10.18161474609375,0.016071999445557594,0.25102800130844116,-0.2099519968032837
1749920271836628200,10.191628173828125,0.032457999885082245,0.19648100435733795,-0.3043990135192871
1749920271846641700,10.2016416015625,0.04409800097346306,0.16184400022029877,-0.3657819926738739
1749920271856654800,10.21165478515625,0.049132999032735825,0.1481180042028427,-0.38367000222206116
1749920271866668300,10.221668212890625,0.03119800053536892,0.15673799812793732,-0.3606939911842346
1749920271876681500,10.231681396484374,-0.01839200034737587,0.18546900153160095,-0.31364598870277405
1749920271886694700,10.241694580078125,-0.08979500085115433,0.22492599487304688,-0.26266199350357056
1749920271896708000,10.2517080078125,-0.1617940068244934,0.25725701451301575,-0.2230920046567917
1749920271906721300,10.26172119140625,-0.21409399807453156,0.26537400484085083,-0.19341300427913666
1749920271916734500,10.271734375,-0.23090699315071106,0.2500309944152832,-0.17152300477027893
1749920271926748200,10.281748046875,-0.2122430056333542,0.22109399735927582,-0.1487099975347519
1749920271936761000,10.291760986328125,-0.1711989939212799,0.18881399929523468,-0.12388399988412857
1749920271946774500,10.3017744140625,-0.12214700132608414,0.16120199859142303,-0.10619200021028519
1749920271956787700,10.31178759765625,-0.08060699701309204,0.1439010053873062,-0.10117100179195404
1749920271966801200,10.32180126953125,-0.05650399997830391,0.14065900444984436,-0.11113499850034714
1749920271976814600,10.331814697265624,-0.04571399837732315,0.1529410034418106,-0.1245340034365654
1749920271986827800,10.341827880859375,-0.04704200103878975,0.1808999925851822,-0.12618699669837952
1749920271996841000,10.351841064453126,-0.062022000551223755,0.22337700426578522,-0.1061210036277771
1749920272006854100,10.361854248046875,-0.08051899820566177,0.2681489884853363,-0.059613000601530075
1749920272016867600,10.37186767578125,-0.09059099853038788,0.30549898743629456,0.004980999976396561
1749920272026881000,10.381881103515624,-0.08907300233840942,0.3379319906234741,0.05582800135016441
1749920272036894200,10.391894287109375,-0.07215200364589691,0.37505200505256653,0.07402999699115753
1749920272046907400,10.401907470703126,-0.038759998977184296,0.41796401143074036,0.05998900160193443
1749920272056920600,10.411920654296875,-0.0004900000058114529,0.4612959921360016,0.03145600110292435
1749920272066934000,10.42193408203125,0.036063000559806824,0.5004940032958984,0.01028900034725666
1749920272076947500,10.431947509765624,0.06620000302791595,0.5313420295715332,0.016147999092936516
1749920272086960600,10.441960693359375,0.08845800161361694,0.556850016117096,0.03692400082945824
1749920272096973800,10.451973876953126,0.09694299846887589,0.574766993522644,0.06350500136613846
1749920272106987300,10.4619873046875,0.09281300008296967,0.5791410207748413,0.10053899884223938
1749920272117000700,10.472000732421876,0.09085000306367874,0.5742120146751404,0.14759600162506104
1749920272127014000,10.482013916015624,0.10019800066947937,0.5679060220718384,0.1909250020980835
1749920272137027000,10.492027099609375,0.11508099734783173,0.5633090138435364,0.21920299530029297
1749920272147040300,10.502040283203126,0.12539200484752655,0.5643560290336609,0.23429100215435028
1749920272157053700,10.5120537109375,0.13759900629520416,0.5711939930915833,0.24316899478435516
1749920272167067100,10.522067138671876,0.16773200035095215,0.5801770091056824,0.252250999212265
1749920272177080300,10.532080322265625,0.2095869928598404,0.5872359871864319,0.26532799005508423
1749920272187093500,10.542093505859375,0.2506040036678314,0.5907760262489319,0.28759899735450745
1749920272197107000,10.55210693359375,0.27946001291275024,0.5928410291671753,0.32514500617980957
1749920272207120100,10.5621201171875,0.2809010148048401,0.6024100184440613,0.35639500617980957
1749920272217133600,10.572133544921876,0.24074600636959076,0.6218770146369934,0.35457900166511536
1749920272227146800,10.582146728515625,0.16578200459480286,0.6380890011787415,0.3262479901313782
1749920272237160000,10.592159912109375,0.08787000179290771,0.6408439874649048,0.29566600918769836
1749920272247173400,10.60217333984375,0.03422300145030022,0.6330869793891907,0.2735629975795746
1749920272257186600,10.6121865234375,0.01205500029027462,0.6189650297164917,0.26284000277519226
1749920272267200000,10.622199951171876,0.018199000507593155,0.600197970867157,0.2584120035171509
1749920272277213200,10.632213134765625,0.04443899914622307,0.5761820077896118,0.25908300280570984
1749920272297239800,10.65223974609375,0.09168600291013718,0.5006099939346313,0.25374001264572144
1749920272307253200,10.662253173828125,0.10182400047779083,0.4490100145339966,0.247748002409935
1749920272317266400,10.672266357421876,0.10974200069904327,0.392535001039505,0.25074198842048645
1749920272327279600,10.682279541015625,0.11971600353717804,0.33796998858451843,0.257097989320755
1749920272337293000,10.69229296875,0.1294189989566803,0.2897849977016449,0.26677799224853516
1749920272347306200,10.70230615234375,0.13162800669670105,0.252003014087677,0.277523010969162
1749920272357319400,10.7123193359375,0.12611599266529083,0.22707700729370117,0.2762869894504547
1749920272367332900,10.722332763671876,0.11027800291776657,0.21843600273132324,0.24841900169849396
1749920272377346000,10.732345947265625,0.08317799866199493,0.22193099558353424,0.18705199658870697
1749920272387359500,10.742359375,0.04847399890422821,0.2234490066766739,0.10961099714040756
1749920272397372700,10.75237255859375,0.01285799965262413,0.21330000460147858,0.038144998252391815
1749920272407385900,10.7623857421875,-0.010207000188529491,0.1917089968919754,-0.018262000754475594
1749920272417399300,10.7723994140625,-0.02865999937057495,0.16019800305366516,-0.06594099849462509
1749920272427412500,10.78241259765625,-0.049295999109745026,0.11896499991416931,-0.10363700240850449
1749920272437426000,10.792426025390625,-0.06842199712991714,0.07116600126028061,-0.13283699750900269
1749920272447439000,10.802439208984374,-0.06974100321531296,0.016964999958872795,-0.16009099781513214
1749920272457452500,10.81245263671875,-0.05847499892115593,-0.04044000059366226,-0.18336300551891327
1749920272467465700,10.8224658203125,-0.061209000647068024,-0.098751001060009,-0.20606699585914612
1749920272477479200,10.832479248046875,-0.07591000199317932,-0.15650899708271027,-0.23457199335098267
1749920272487492400,10.842492431640625,-0.0902239978313446,-0.2107599973678589,-0.2761470079421997
1749920272497505500,10.852505615234374,-0.10174000263214111,-0.25748100876808167,-0.33590400218963623
1749920272507518700,10.862518798828125,-0.10380099713802338,-0.30009299516677856,-0.39583900570869446
1749920272517532400,10.872532470703124,-0.08463700115680695,-0.339354008436203,-0.43280598521232605
1749920272527545600,10.882545654296875,-0.04057500138878822,-0.36878299713134766,-0.4471209943294525
1749920272537558800,10.892558837890626,0.016699999570846558,-0.3845379948616028,-0.4413979947566986
1749920272547572000,10.902572021484374,0.0660960003733635,-0.3884580135345459,-0.42041099071502686
1749920272557585400,10.91258544921875,0.10159099847078323,-0.3803580105304718,-0.38861799240112305
1749920272567598600,10.9225986328125,0.12315499782562256,-0.36238598823547363,-0.3374530076980591
1749920272577612000,10.932612060546875,0.13044700026512146,-0.33887800574302673,-0.2723900079727173
1749920272587625200,10.942625244140626,0.12900200486183167,-0.3125379979610443,-0.20827099680900574
1749920272597638400,10.952638427734374,0.1286119967699051,-0.28738000988960266,-0.1571040004491806
1749920272607651800,10.96265185546875,0.12459699809551239,-0.2688489854335785,-0.12849199771881104
1749920272617665300,10.972665283203124,0.11487200111150742,-0.2664110064506531,-0.12009599804878235
1749920272627678500,10.982678466796875,0.1030070036649704,-0.28795599937438965,-0.12180700153112411
1749920272637691600,10.992691650390626,0.09089700132608414,-0.33302798867225647,-0.13722099363803864
1749920272647704800,11.002704833984374,0.07827199995517731,-0.3972409963607788,-0.16966399550437927
1749920272657718300,11.01271826171875,0.060446999967098236,-0.4756830036640167,-0.20615099370479584
1749920272667731500,11.0227314453125,0.042994000017642975,-0.564740002155304,-0.24153700470924377
1749920272677745000,11.032744873046875,0.024754999205470085,-0.6562889814376831,-0.28376099467277527
1749920272687758000,11.042758056640626,0.006012999918311834,-0.7385939955711365,-0.33931100368499756
1749920272697771300,11.052771240234375,-0.00495699979364872,-0.8051400184631348,-0.4046950042247772
1749920272707784700,11.06278466796875,-0.023055000230669975,-0.8563339710235596,-0.47589901089668274
1749920272717798000,11.0727978515625,-0.056432001292705536,-0.8915429711341858,-0.5347790122032166
1749920272727811000,11.08281103515625,-0.10158500075340271,-0.9003009796142578,-0.5486819744110107
1749920272737824500,11.092824462890626,-0.1445389986038208,-0.8667659759521484,-0.5077710151672363
1749920272747837400,11.10283740234375,-0.16664299368858337,-0.7875210046768188,-0.4256249964237213
1749920272757851100,11.11285107421875,-0.1633860021829605,-0.6734319925308228,-0.3189209997653961
1749920272767864300,11.1228642578125,-0.14328600466251373,-0.5425119996070862,-0.20169800519943237
1749920272777877500,11.13287744140625,-0.12433300167322159,-0.406810998916626,-0.07778500020503998
1749920272787890700,11.142890625,-0.10451000183820724,-0.2825450003147125,0.0514799989759922
1749920272797904100,11.152904052734375,-0.07779800146818161,-0.1893240064382553,0.17085400223731995
1749920272807917600,11.16291748046875,-0.04634099826216698,-0.14137199521064758,0.26545900106430054
1749920272817930800,11.1729306640625,-0.013450000435113907,-0.14195600152015686,0.3288849890232086
1749920272827944000,11.18294384765625,0.012222999706864357,-0.18207000195980072,0.35619500279426575
1749920272837957000,11.19295703125,0.01565299928188324,-0.25176799297332764,0.3320100009441376
1749920272847970600,11.202970458984375,-0.0020979999098926783,-0.34653401374816895,0.2583940029144287
1749920272857983700,11.212983642578125,-0.03379200026392937,-0.4682529866695404,0.14765700697898865
1749920272867997200,11.2229970703125,-0.07632199674844742,-0.6100010275840759,0.00965300016105175
1749920272878010400,11.23301025390625,-0.12490300089120865,-0.7599179744720459,-0.13254599273204803
1749920272888023600,11.2430234375,-0.16957800090312958,-0.9011759757995605,-0.27069398760795593
1749920272898037000,11.253037109375,-0.20761600136756897,-1.0067119598388672,-0.38657501339912415
1749920272908050200,11.26305029296875,-0.23019300401210785,-1.0433859825134277,-0.44046300649642944
1749920272918063400,11.2730634765625,-0.22808000445365906,-1.0116870403289795,-0.4253459870815277
1749920272928076800,11.283076904296875,-0.21017299592494965,-0.9281659722328186,-0.36645299196243286
1749920272938090000,11.293090087890626,-0.18633399903774261,-0.8107839822769165,-0.2680070102214813
1749920272948103200,11.303103271484375,-0.15634599328041077,-0.6733989715576172,-0.13670499622821808
1749920272958116600,11.31311669921875,-0.10956200212240219,-0.5253109931945801,0.015515999868512154
1749920272968129800,11.3231298828125,-0.05074699968099594,-0.37313100695610046,0.18013499677181244
1749920272978143000,11.33314306640625,0.015329999849200249,-0.2232310026884079,0.35467201471328735
1749920272988156400,11.343156494140626,0.08932600170373917,-0.08019900321960449,0.5338199734687805
1749920272998169900,11.353169921875,0.1656319946050644,0.05318700149655342,0.701462984085083
1749920273008183000,11.36318310546875,0.2463420033454895,0.17522099614143372,0.8447089791297913
1749920273018196200,11.3731962890625,0.32712599635124207,0.28395599126815796,0.941618025302887
1749920273028209700,11.383209716796875,0.39820200204849243,0.3689019978046417,0.9583659768104553
1749920273038223000,11.39322314453125,0.44721001386642456,0.41087400913238525,0.8911259770393372
1749920273048236000,11.403236083984375,0.45021599531173706,0.4046109914779663,0.768064022064209
1749920273058249500,11.41324951171875,0.3992460072040558,0.35765400528907776,0.6128550171852112
1749920273068263000,11.423262939453124,0.3167150020599365,0.2831859886646271,0.45146599411964417
1749920273078276000,11.433276123046875,0.23332500457763672,0.1872210055589676,0.299562007188797
1749920273088289300,11.443289306640626,0.15473699569702148,0.08152499794960022,0.15613999962806702
1749920273098302500,11.453302490234375,0.087398000061512,-0.015925999730825424,0.021609999239444733
1749920273108316000,11.46331591796875,0.039016999304294586,-0.0896110013127327,-0.1025490015745163
1749920273118329300,11.473329345703124,0.0028019999153912067,-0.13502299785614014,-0.20443099737167358
1749920273128342500,11.483342529296875,-0.03280799835920334,-0.14996400475502014,-0.2753390073776245
1749920273138355700,11.493355712890626,-0.06608600169420242,-0.12469600141048431,-0.3088890016078949
1749920273148369000,11.503368896484375,-0.09047400206327438,-0.05953500047326088,-0.30291199684143066
1749920273158382300,11.51338232421875,-0.11049500107765198,0.04941700026392937,-0.2771889865398407
1749920273168395500,11.5233955078125,-0.1214039996266365,0.1856759935617447,-0.2395630031824112
1749920273178408700,11.53340869140625,-0.10816799849271774,0.3264769911766052,-0.20569799840450287
1749920273188422100,11.543422119140626,-0.07089199870824814,0.4531640112400055,-0.16730299592018127
1749920273198435300,11.553435302734375,-0.024855000898241997,0.5324869751930237,-0.10798399895429611
1749920273208448800,11.56344873046875,0.0094200000166893,0.5409749746322632,-0.06448899954557419
1749920273218462000,11.5734619140625,0.0162189994007349,0.4959869980812073,-0.054910000413656235
1749920273228475100,11.58347509765625,0.014698999933898449,0.42239201068878174,-0.05944199860095978
1749920273238488300,11.59348828125,0.019229000434279442,0.34308499097824097,-0.07992299646139145
1749920273248501800,11.603501708984375,0.03338700160384178,0.2738940119743347,-0.11488799750804901
1749920273258515200,11.61351513671875,0.04133100062608719,0.22556300461292267,-0.16475699841976166
1749920273268528400,11.6235283203125,0.037852998822927475,0.19673100113868713,-0.22099800407886505
1749920273278541600,11.63354150390625,0.028558000922203064,0.18336999416351318,-0.2731409966945648
1749920273288555000,11.643554931640624,0.01295000035315752,0.18193799257278442,-0.31728100776672363
1749920273298568000,11.65356787109375,-0.006684999912977219,0.18839000165462494,-0.35048699378967285
1749920273308581400,11.663581298828126,-0.028970999643206596,0.19878800213336945,-0.3727110028266907
1749920273318594600,11.673594482421874,-0.05286499857902527,0.2069139927625656,-0.3782939910888672
1749920273328607700,11.683607666015625,-0.07817299664020538,0.20709499716758728,-0.36347898840904236
1749920273338621200,11.69362109375,-0.10518600046634674,0.1960660070180893,-0.3315800130367279
1749920273348634400,11.70363427734375,-0.12992599606513977,0.17179299890995026,-0.2956550121307373
1749920273358647600,11.7136474609375,-0.14244000613689423,0.1376899927854538,-0.2686389982700348
1749920273368661000,11.723660888671875,-0.1363620012998581,0.10510800033807755,-0.25123900175094604
1749920273378674200,11.733674072265625,-0.10711000114679337,0.0888110026717186,-0.2569180130958557
1749920273388687400,11.743687255859374,-0.06340599805116653,0.09141500294208527,-0.2712950110435486
1749920273398700500,11.753700439453125,-0.023910000920295715,0.11143899708986282,-0.27424201369285583
1749920273408714000,11.7637138671875,-0.001762000028975308,0.14616499841213226,-0.2587220072746277
1749920273418727400,11.7737275390625,0.005932000000029802,0.19341899454593658,-0.22549200057983398
1749920273428740600,11.78374072265625,0.009534000419080257,0.24756599962711334,-0.1740729957818985
1749920273438753800,11.79375390625,0.011266999877989292,0.29784300923347473,-0.10861299932003021
1749920273448767000,11.80376708984375,0.014568000100553036,0.340938001871109,-0.03791999816894531
1749920273458780400,11.813780517578126,0.028509000316262245,0.36826300621032715,0.04665900021791458
1749920273468793600,11.823793701171875,0.04949500039219856,0.3842490017414093,0.13973399996757507
1749920273478806800,11.833806884765625,0.0650700032711029,0.3974210023880005,0.2400529980659485
1749920273488820000,11.843820068359374,0.07069800049066544,0.4119170010089874,0.34514400362968445
1749920273498833400,11.85383349609375,0.07960700243711472,0.4399220049381256,0.43004700541496277
1749920273508846600,11.8638466796875,0.10365299880504608,0.48403400182724,0.49056199193000793
1749920273518860000,11.873860107421875,0.14523500204086304,0.5350289940834045,0.5292720198631287
1749920273528873200,11.883873291015625,0.18399199843406677,0.5847640037536621,0.5504050254821777
1749920273538886400,11.893886474609374,0.2032500058412552,0.6271049976348877,0.5622689723968506
1749920273548899800,11.90389990234375,0.19918300211429596,0.6604670286178589,0.5545210242271423
1749920273558913000,11.9139130859375,0.1740950047969818,0.6804540157318115,0.5301269888877869
1749920273568926200,11.92392626953125,0.12069699913263321,0.6915900111198425,0.4977149963378906
1749920273578939600,11.933939697265625,0.04797099903225899,0.6984570026397705,0.45371800661087036
1749920273588953000,11.943953125,-0.03268200159072876,0.7013959884643555,0.39100199937820435
1749920273598966300,11.95396630859375,-0.11814700067043304,0.6930850148200989,0.30290600657463074
1749920273608979500,11.9639794921875,-0.1932860016822815,0.6582159996032715,0.19425000250339508
1749920273618992600,11.97399267578125,-0.2399899959564209,0.5882480144500732,0.09302300214767456
1749920273629005800,11.984005859375,-0.2536030113697052,0.4900070130825043,0.03374899923801422
1749920273639019300,11.994019287109374,-0.2398490011692047,0.3805130124092102,0.012505999766290188
1749920273649032400,12.004032470703125,-0.21032999455928802,0.2705090045928955,0.03305299952626228
1749920273659045600,12.014045654296876,-0.1644970029592514,0.17375800013542175,0.09788600355386734
1749920273669058800,12.024058837890625,-0.10491099953651428,0.1036359965801239,0.19540199637413025
1749920273679072300,12.034072265625,-0.05615599825978279,0.06586199998855591,0.31772199273109436
1749920273689085700,12.044085693359374,-0.031835999339818954,0.06309600174427032,0.43268901109695435
1749920273699099000,12.054098876953125,-0.020743999630212784,0.08508100360631943,0.5238320231437683
1749920273709112000,12.064112060546876,-0.010976999998092651,0.1169700026512146,0.5971300005912781
1749920273719125200,12.074125244140625,0.0009219999774359167,0.14816400408744812,0.6433190107345581
1749920273729138400,12.084138427734375,0.019379999488592148,0.16967099905014038,0.653007984161377
1749920273739152000,12.09415185546875,0.042128000408411026,0.17634299397468567,0.6366260051727295
1749920273749165300,12.104165283203125,0.062431998550891876,0.16814400255680084,0.6076229810714722
1749920273759178200,12.11417822265625,0.08110199868679047,0.15041300654411316,0.5720980167388916
1749920273769191700,12.124191650390625,0.09367600083351135,0.13207800686359406,0.5258650183677673
1749920273779204900,12.134204833984375,0.09684000164270401,0.1181119978427887,0.4628300070762634
1749920273789218000,12.144218017578124,0.07874900102615356,0.10815200209617615,0.3783079981803894
1749920273799231200,12.154231201171875,0.03688599914312363,0.09890799969434738,0.2700220048427582
1749920273809244700,12.16424462890625,-0.015053999610245228,0.08302100002765656,0.14763900637626648
1749920273819257900,12.1742578125,-0.06343899667263031,0.05990400165319443,0.025854000821709633
1749920273829271000,12.18427099609375,-0.10904199630022049,0.031706999987363815,-0.09072600305080414
1749920273839284200,12.1942841796875,-0.14303399622440338,-0.0032369999680668116,-0.19822800159454346
1749920273849297700,12.204297607421875,-0.15745900571346283,-0.04753600060939789,-0.2771430015563965
1749920273859311000,12.21431103515625,-0.15418699383735657,-0.09881000220775604,-0.33037900924682617
1749920273869324300,12.22432421875,-0.12532900273799896,-0.15725800395011902,-0.3739910125732422
1749920273879337500,12.23433740234375,-0.07951299846172333,-0.22227700054645538,-0.4088149964809418
1749920273889350700,12.2443505859375,-0.024984000250697136,-0.291593998670578,-0.42741599678993225
1749920273899364000,12.254364013671875,0.03932499885559082,-0.35592201352119446,-0.4160580039024353
1749920273909377300,12.264377197265626,0.10002899914979935,-0.3958919942378998,-0.3697490096092224
1749920273919390500,12.274390380859375,0.14112399518489838,-0.3999679982662201,-0.3092060089111328
1749920273929404000,12.28440380859375,0.16710400581359863,-0.3712419867515564,-0.26632699370384216
1749920273939417000,12.2944169921875,0.18424800038337708,-0.3222759962081909,-0.23987700045108795
1749920273949430300,12.30443017578125,0.19649599492549896,-0.2603110074996948,-0.23914699256420135
1749920273959443700,12.314443603515626,0.19780200719833374,-0.20045900344848633,-0.26984599232673645
1749920273969457000,12.324456787109375,0.1797579973936081,-0.16477300226688385,-0.3287549912929535
1749920273979470000,12.334469970703125,0.15351000428199768,-0.16827400028705597,-0.39976200461387634
1749920273989483300,12.344483154296874,0.13359799981117249,-0.21385100483894348,-0.4637799859046936
1749920273999496700,12.35449658203125,0.11849799752235413,-0.2880460023880005,-0.5199120044708252
1749920274009510000,12.364510009765626,0.09926799684762955,-0.36974701285362244,-0.5715199708938599
1749920274019523000,12.374523193359375,0.07360400259494781,-0.4443660080432892,-0.6092320084571838
1749920274029536300,12.384536376953125,0.046688999980688095,-0.5011879801750183,-0.6250360012054443
1749920274039549400,12.394549560546874,0.027837999165058136,-0.5334290266036987,-0.6270800232887268
1749920274049563000,12.40456298828125,0.016269000247120857,-0.5417289733886719,-0.6223959922790527
1749920274059576000,12.414576171875,0.007205000147223473,-0.5310660004615784,-0.6089439988136292
1749920274069589200,12.42458935546875,0.002251999918371439,-0.5108529925346375,-0.580689013004303
