time,seconds_elapsed,z,y,x
1749920261733175800,0.08817578125,9.712711334228516,1.3381420373916626,0.1534460037946701
1749920261743189000,0.09818896484375,9.634577751159668,1.8083900213241577,0.26804301142692566
1749920261753202400,0.108202392578125,9.09658145904541,3.6389360427856445,0.3671090006828308
1749920261763215600,0.118215576171875,9.030299186706543,3.8006858825683594,0.4223470091819763
1749920261773229000,0.12822900390625,9.02942943572998,3.8026480674743652,0.42281898856163025
1749920261783242200,0.1382421875,9.027399063110352,3.806826114654541,0.42575499415397644
1749920261793255700,0.148255615234375,9.024578094482422,3.8127779960632324,0.4279170036315918
1749920261803268900,0.158268798828125,9.021132469177246,3.8201920986175537,0.4284859895706177
1749920261813282300,0.1682822265625,9.018104553222656,3.826836109161377,0.42835599184036255
1749920261823295500,0.17829541015625,9.014435768127441,3.834852933883667,0.42712101340293884
1749920261833309000,0.188308837890625,9.011260032653809,3.8418760299682617,0.4260460138320923
1749920261843322000,0.198322021484375,9.008352279663086,3.8482720851898193,0.4259699881076813
1749920261853335600,0.20833544921875,9.005453109741211,3.8544859886169434,0.427359014749527
1749920261863348700,0.2183486328125,9.002389907836914,3.8608438968658447,0.43015798926353455
1749920261873362200,0.228362060546875,8.999165534973145,3.867363929748535,0.4339810013771057
1749920261883375400,0.238375244140625,8.995917320251465,3.873814105987549,0.4385020136833191
1749920261893388800,0.248388916015625,8.99266242980957,3.8801939487457275,0.44346800446510315
1749920261903402000,0.258402099609375,8.989290237426758,3.8867170810699463,0.4489170014858246
1749920261913415200,0.268415283203125,8.984865188598633,3.8950729370117188,0.45559200644493103
1749920261923428600,0.2784287109375,8.97938346862793,3.9051411151885986,0.4636000096797943
1749920261933442000,0.288442138671875,8.97294807434082,3.9166650772094727,0.4728429913520813
1749920261943455200,0.298455322265625,8.965051651000977,3.9297399520874023,0.48583799600601196
1749920261953468700,0.30846875,8.956645965576172,3.94364595413208,0.49897199869155884
1749920261963481900,0.31848193359375,8.947874069213867,3.9582529067993164,0.5118309855461121
1749920261973495300,0.328495361328125,8.93807315826416,3.973841905593872,0.5270270109176636
1749920261983508500,0.338508544921875,8.92729377746582,3.990483045578003,0.5437930226325989
1749920261993521700,0.348521728515625,8.916435241699219,4.0077128410339355,0.5591549873352051
1749920262003534800,0.358534912109375,8.90569019317627,4.025309085845947,0.5727319717407227
1749920262013548300,0.36854833984375,8.895265579223633,4.042963027954102,0.584263026714325
1749920262023561700,0.378561767578125,8.885323524475098,4.060336112976074,0.5938060283660889
1749920262033575000,0.388574951171875,8.87598991394043,4.077087879180908,0.6017379760742188
1749920262043588400,0.39858837890625,8.86738395690918,4.0928850173950195,0.6085180044174194
1749920262053601500,0.4086015625,8.860119819641113,4.1065568923950195,0.6145579814910889
1749920262063615000,0.418614990234375,8.853937149047852,4.118353843688965,0.6204500198364258
1749920262073628200,0.428628173828125,8.848732948303223,4.128353118896484,0.6263530254364014
1749920262083641600,0.4386416015625,8.844291687011719,4.136922836303711,0.6321380138397217
1749920262093654800,0.44865478515625,8.840733528137207,4.143898963928223,0.6371920108795166
1749920262103668000,0.45866796875,8.837821960449219,4.149580955505371,0.6421170234680176
1749920262113681400,0.468681396484375,8.835921287536621,4.1531829833984375,0.6467249989509583
1749920262123694600,0.478694580078125,8.834977149963379,4.154969215393066,0.6496390104293823
1749920262133708000,0.4887080078125,8.834465026855469,4.155917167663574,0.6515780091285706
1749920262143721500,0.498721435546875,8.834444046020508,4.15591287612915,0.6520439982414246
1749920262153734700,0.508734619140625,8.83473014831543,4.155313014984131,0.6512309908866882
1749920262163747800,0.518747802734375,8.835302352905273,4.154140949249268,0.648872971534729
1749920262173761300,0.52876123046875,8.836190223693848,4.1522297859191895,0.6457809805870056
1749920262183774700,0.538774658203125,8.837468147277832,4.149277210235596,0.6436529755592346
1749920262193788000,0.548787841796875,8.839101791381836,4.145240783691406,0.6432579755783081
1749920262203801000,0.558801025390625,8.841039657592773,4.1403279304504395,0.6433809995651245
1749920262213814500,0.568814453125,8.843234062194824,4.134582042694092,0.6444879770278931
1749920262223828000,0.578827880859375,8.845574378967285,4.12821102142334,0.6469050049781799
1749920262233841200,0.588841064453125,8.848140716552734,4.120909214019775,0.6507189869880676
1749920262243854300,0.598854248046875,8.850943565368652,4.112536907196045,0.656063973903656
1749920262253867500,0.608867431640625,8.853941917419434,4.103061199188232,0.6631529927253723
1749920262263881000,0.618880859375,8.856958389282227,4.0929131507873535,0.6719920039176941
1749920262273894100,0.62889404296875,8.859842300415039,4.082632064819336,0.6822100281715393
1749920262283907600,0.638907470703125,8.862601280212402,4.072446823120117,0.69309401512146
1749920262293920800,0.648920654296875,8.865154266357422,4.062528133392334,0.7048280239105225
1749920262303934000,0.658933837890625,8.867494583129883,4.053059101104736,0.7169950008392334
1749920262313947100,0.668947021484375,8.869597434997559,4.0439348220825195,0.7299559712409973
1749920262323960800,0.6789609375,8.871549606323242,4.035061836242676,0.7433279752731323
1749920262333974000,0.68897412109375,8.873455047607422,4.02632999420166,0.7566990256309509
1749920262343987200,0.6989873046875,8.875107765197754,4.017934799194336,0.7708989977836609
1749920262354001000,0.7090009765625,8.876715660095215,4.009504795074463,0.7854260206222534
1749920262364014000,0.71901416015625,8.878519058227539,4.00066614151001,0.7996249794960022
1749920262374027300,0.72902734375,8.880735397338867,3.9911460876464844,0.8126969933509827
1749920262384040400,0.73904052734375,8.883392333984375,3.9808950424194336,0.824442982673645
1749920262394054100,0.74905419921875,8.886298179626465,3.970315933227539,0.8351989984512329
1749920262404067300,0.7590673828125,8.889274597167969,3.9598710536956787,0.8451060056686401
1749920262414080500,0.76908056640625,8.892229080200195,3.9498939514160156,0.8540070056915283
1749920262424094000,0.779093994140625,8.895101547241211,3.9406559467315674,0.8615310192108154
1749920262434107400,0.789107421875,8.897852897644043,3.9322919845581055,0.867402970790863
1749920262444120600,0.79912060546875,8.900522232055664,3.924639940261841,0.8714489936828613
1749920262454134000,0.809134033203125,8.90321159362793,3.917318105697632,0.8736540079116821
1749920262464147200,0.819147216796875,8.906006813049316,3.909975051879883,0.8741440176963806
1749920262474160600,0.82916064453125,8.908862113952637,3.90266489982605,0.8729569911956787
1749920262484173800,0.839173828125,8.911666870117188,3.89565110206604,0.8698040246963501
1749920262494187000,0.84918701171875,8.914302825927734,3.8891680240631104,0.8643450140953064
1749920262504200400,0.859200439453125,8.916642189025879,3.8834431171417236,0.8566160202026367
1749920262514213600,0.869213623046875,8.918519973754883,3.8787879943847656,0.846688985824585
1749920262524227000,0.87922705078125,8.919899940490723,3.875217914581299,0.8349959850311279
1749920262534240300,0.889240234375,8.920263290405273,3.873270034790039,0.8184379935264587
1749920262544253400,0.89925341796875,8.91959285736084,3.8726210594177246,0.7976490259170532
1749920262554266600,0.9092666015625,8.917196273803711,3.874830961227417,0.7742589712142944
1749920262564280000,0.919280029296875,8.914976119995117,3.8759219646453857,0.7484930157661438
1749920262574293500,0.92929345703125,8.913057327270508,3.875788927078247,0.7209929823875427
1749920262584306700,0.939306640625,8.911458015441895,3.8744289875030518,0.6891400218009949
1749920262594320100,0.949320068359375,8.909772872924805,3.8723158836364746,0.6562889814376831
1749920262604333300,0.959333251953125,8.907988548278809,3.869560956954956,0.6236600279808044
1749920262614346800,0.9693466796875,8.905342102050781,3.8681321144104004,0.5910419821739197
1749920262624360000,0.97935986328125,8.903167724609375,3.8651280403137207,0.5585100054740906
1749920262634373400,0.989373291015625,8.900800704956055,3.862607955932617,0.5260069966316223
1749920262644386600,0.999386474609375,8.898531913757324,3.859761953353882,0.4921700060367584
1749920262654400000,1.00939990234375,8.89649772644043,3.8562140464782715,0.4562210142612457
1749920262664413200,1.0194130859375,8.894767761230469,3.8523120880126953,0.4190180003643036
1749920262674426600,1.029426513671875,8.893312454223633,3.8482730388641357,0.3812600076198578
1749920262684439800,1.039439697265625,8.891990661621094,3.8445029258728027,0.3435809910297394
1749920262694453000,1.049452880859375,8.891006469726562,3.840708017349243,0.3065969944000244
1749920262704466400,1.059466552734375,8.890460014343262,3.836761951446533,0.27045100927352905
1749920262714479900,1.06947998046875,8.891271591186523,3.831001043319702,0.23445899784564972
1749920262724493000,1.0794931640625,8.893377304077148,3.823570966720581,0.1983489990234375
1749920262734506200,1.08950634765625,8.896612167358398,3.8147900104522705,0.16209200024604797
1749920262744519700,1.099519775390625,8.901424407958984,3.8046350479125977,0.12310999631881714
1749920262754533000,1.109533203125,8.906782150268555,3.79392409324646,0.08486700057983398
1749920262764546300,1.11954638671875,8.912476539611816,3.782862901687622,0.047658998519182205
1749920262774559500,1.1295595703125,8.919119834899902,3.771270990371704,0.008860999718308449
1749920262784572700,1.13957275390625,8.926684379577637,3.7590138912200928,-0.0307219997048378
1749920262794586400,1.14958642578125,8.934366226196289,3.7463650703430176,-0.06806299835443497
1749920262804599600,1.159599609375,8.94202995300293,3.733398914337158,-0.10281600058078766
1749920262814612700,1.16961279296875,8.949492454528809,3.7203528881073,-0.134770005941391
1749920262824626000,1.1796259765625,8.956610679626465,3.7074999809265137,-0.16397899389266968
1749920262834639600,1.1896396484375,8.96333122253418,3.6950368881225586,-0.19078600406646729
1749920262844652800,1.19965283203125,8.969643592834473,3.683051109313965,-0.21565599739551544
1749920262854666000,1.209666015625,8.97507381439209,3.6724090576171875,-0.23886699974536896
1749920262864679400,1.219679443359375,8.979940414428711,3.6627349853515625,-0.2608740031719208
1749920262874692600,1.229692626953125,8.984338760375977,3.6539371013641357,-0.28174498677253723
1749920262884706000,1.2397060546875,8.988449096679688,3.64565110206604,-0.3015199899673462
1749920262894719200,1.24971923828125,8.992114067077637,3.638037919998169,-0.31988200545310974
1749920262904732700,1.259732666015625,8.995502471923828,3.6309049129486084,-0.3375680148601532
1749920262914746000,1.26974609375,8.998151779174805,3.6252670288085938,-0.3543669879436493
1749920262924759300,1.27975927734375,9.00005054473877,3.6210100650787354,-0.36890798807144165
1749920262934772500,1.2897724609375,9.001717567443848,3.6171770095825195,-0.38179001212120056
1749920262944786000,1.299785888671875,9.003043174743652,3.6140079498291016,-0.3923490047454834
1749920262954799000,1.309799072265625,9.00414752960205,3.611284017562866,-0.400985985994339
1749920262964812500,1.3198125,9.005069732666016,3.608889102935791,-0.4077880084514618
1749920262974826000,1.329825927734375,9.00584602355957,3.6068649291992188,-0.4128040075302124
1749920262984839200,1.339839111328125,9.006256103515625,3.6058709621429443,-0.417959988117218
1749920262994852600,1.3498525390625,9.00626277923584,3.606100082397461,-0.42442500591278076
1749920263004865800,1.35986572265625,9.005952835083008,3.6072440147399902,-0.43107500672340393
1749920263014879000,1.36987890625,9.005407333374023,3.609178066253662,-0.43850699067115784
1749920263024892400,1.379892333984375,9.004758834838867,3.6116230487823486,-0.44719699025154114
1749920263034905600,1.389905517578125,9.003939628601074,3.6148500442504883,-0.4573499858379364
1749920263044919000,1.3999189453125,9.00294303894043,3.618990898132324,-0.4691379964351654
1749920263054932500,1.409932373046875,9.001798629760742,3.6241021156311035,-0.4827759861946106
1749920263064945700,1.419945556640625,9.00067138671875,3.629793882369995,-0.49823400378227234
1749920263074959000,1.429958984375,8.999685287475586,3.6355979442596436,-0.5151150226593018
1749920263084972300,1.43997216796875,8.998801231384277,3.6413540840148926,-0.5327320098876953
1749920263094985700,1.44998583984375,8.9981107711792,3.646881103515625,-0.5512800216674805
1749920263104999000,1.4599990234375,8.997644424438477,3.6519219875335693,-0.570455014705658
1749920263115012400,1.470012451171875,8.9974365234375,3.6565470695495605,-0.5907250046730042
1749920263125025500,1.480025634765625,8.997407913208008,3.6608328819274902,-0.6116480231285095
1749920263135039000,1.4900390625,8.997468948364258,3.664858102798462,-0.6326550245285034
1749920263145052200,1.50005224609375,8.997836112976074,3.668407917022705,-0.6544039845466614
1749920263155065600,1.510065673828125,8.998318672180176,3.671807050704956,-0.6763489842414856
1749920263165079000,1.5200791015625,8.998693466186523,3.6753830909729004,-0.6978800296783447
1749920263175092200,1.53009228515625,8.9987154006958,3.6794750690460205,-0.7183340191841125
1749920263185105700,1.540105712890625,8.998295783996582,3.684269905090332,-0.7378510236740112
1749920263195119000,1.550119140625,8.997602462768555,3.6894290447235107,-0.7570300102233887
1749920263205132300,1.56013232421875,8.996795654296875,3.6945199966430664,-0.775888979434967
1749920263215145700,1.570145751953125,8.995966911315918,3.699230909347534,-0.7941399812698364
1749920263225159000,1.580158935546875,8.995180130004883,3.7032859325408936,-0.8113089799880981
1749920263235172000,1.590172119140625,8.994482040405273,3.7065179347991943,-0.82709801197052
1749920263245185500,1.600185546875,8.993814468383789,3.7091379165649414,-0.8414450287818909
1749920263255199000,1.610198974609375,8.993019104003906,3.7116611003875732,-0.854436993598938
1749920263265212200,1.620212158203125,8.991951942443848,3.714576005935669,-0.8662509918212891
1749920263275225600,1.6302255859375,8.990663528442383,3.717784881591797,-0.87705397605896
1749920263285238800,1.64023876953125,8.989337921142578,3.7208240032196045,-0.8865230083465576
1749920263295252200,1.650252197265625,8.988162994384766,3.723294973373413,-0.8941760063171387
1749920263305265400,1.660265380859375,8.987303733825684,3.7248990535736084,-0.8998879790306091
1749920263315278800,1.67027880859375,8.986918449401855,3.7253470420837402,-0.9036679863929749
1749920263325292000,1.6802919921875,8.987000465393066,3.724724054336548,-0.906050980091095
1749920263335305500,1.690305419921875,8.988028526306152,3.7225499153137207,-0.9040380120277405
1749920263345318700,1.700318603515625,8.989991188049316,3.7192211151123047,-0.898406982421875
1749920263355332000,1.71033203125,8.99284839630127,3.7147040367126465,-0.8906909823417664
1749920263365345300,1.72034521484375,8.996281623840332,3.709368944168091,-0.8819519877433777
1749920263375358700,1.730358642578125,9.000367164611816,3.7031350135803223,-0.8717470169067383
1749920263385372200,1.7403720703125,9.005404472351074,3.695719003677368,-0.8592579960823059
1749920263395385300,1.75038525390625,9.011480331420898,3.686861991882324,-0.8449469804763794
1749920263405398500,1.7603984375,9.018525123596191,3.676377058029175,-0.8297970294952393
1749920263415411700,1.77041162109375,9.026277542114258,3.664407968521118,-0.8146370053291321
1749920263425425200,1.780425048828125,9.034387588500977,3.6516990661621094,-0.799697995185852
1749920263435438600,1.7904384765625,9.042237281799316,3.639141082763672,-0.7856540083885193
1749920263445451800,1.80045166015625,9.049806594848633,3.6273739337921143,-0.7710170149803162
1749920263455465200,1.81046533203125,9.0573091506958,3.6161210536956787,-0.7553110122680664
1749920263465478400,1.820478515625,9.06460952758789,3.605128049850464,-0.7401509881019592
1749920263475491800,1.830491943359375,9.071706771850586,3.594158887863159,-0.7260460257530212
1749920263485505000,1.840505126953125,9.078709602355957,3.5822010040283203,-0.7145670056343079
1749920263495518500,1.8505185546875,9.085058212280273,3.5705559253692627,-0.7059019804000854
1749920263505531600,1.86053173828125,9.090568542480469,3.5595459938049316,-0.7004119753837585
1749920263515545000,1.870545166015625,9.095038414001465,3.5497360229492188,-0.6980159878730774
1749920263525558300,1.880558349609375,9.098604202270508,3.540822982788086,-0.6984829902648926
1749920263535571700,1.89057177734375,9.101335525512695,3.5325610637664795,-0.7018100023269653
1749920263545585000,1.9005849609375,9.103343963623047,3.5246338844299316,-0.7079529762268066
1749920263555598000,1.91059814453125,9.104793548583984,3.516752004623413,-0.7165960073471069
1749920263565611500,1.920611572265625,9.105852127075195,3.508733034133911,-0.7272769808769226
1749920263575625000,1.930625,9.107556343078613,3.4985029697418213,-0.739100992679596
1749920263585638100,1.94063818359375,9.10972785949707,3.4864730834960938,-0.7520800232887268
1749920263595651300,1.9506513671875,9.112092971801758,3.473383903503418,-0.7661569714546204
1749920263605664800,1.960664794921875,9.113798141479492,3.4610939025878906,-0.7819920182228088
1749920263615678000,1.970677978515625,9.114755630493164,3.4495840072631836,-0.7998009920120239
1749920263625691400,1.98069140625,9.114912986755371,3.4386770725250244,-0.8198990225791931
1749920263635704600,1.99070458984375,9.114150047302246,3.428225040435791,-0.8427299857139587
1749920263645718000,2.000718017578125,9.1122407913208,3.4182000160217285,-0.8688070178031921
1749920263655731200,2.010731201171875,9.10882568359375,3.4086720943450928,-0.8988839983940125
1749920263665744400,2.020744384765625,9.103547096252441,3.3995931148529053,-0.9337329864501953
1749920263675757800,2.0307578125,9.096098899841309,3.3907859325408936,-0.9739320278167725
1749920263685771300,2.040771240234375,9.086385726928711,3.3819730281829834,-1.0193849802017212
1749920263695784400,2.050784423828125,9.07430362701416,3.37266206741333,-1.069970965385437
1749920263705798000,2.0607978515625,9.059835433959961,3.3621110916137695,-1.1256439685821533
1749920263715811000,2.07081103515625,9.043164253234863,3.349562883377075,-1.1861380338668823
1749920263725824300,2.08082421875,9.024564743041992,3.334489107131958,-1.2509299516677856
1749920263735837700,2.090837646484375,9.004030227661133,3.3164761066436768,-1.3199529647827148
1749920263745851100,2.10085107421875,8.981344223022461,3.295016050338745,-1.393455982208252
1749920263755864300,2.1108642578125,8.956342697143555,3.2696239948272705,-1.471182942390442
1749920263765877800,2.120877685546875,8.928929328918457,3.2400920391082764,-1.5525050163269043
1749920263775891200,2.13089111328125,8.898984909057617,3.2063069343566895,-1.6378610134124756
1749920263785904400,2.140904296875,8.86648941040039,3.16764497756958,-1.72679603099823
1749920263795917800,2.150917724609375,8.831130027770996,3.1236159801483154,-1.8188270330429077
1749920263805931300,2.16093115234375,8.792510986328125,3.0741050243377686,-1.9136919975280762
1749920263815944400,2.1709443359375,8.751482009887695,3.019577980041504,-2.0101709365844727
1749920263825957600,2.18095751953125,8.706932067871094,2.9594359397888184,-2.1084399223327637
1749920263835971000,2.19097119140625,8.652169227600098,2.8888180255889893,-2.2108609676361084
1749920263845984500,2.200984619140625,8.590499877929688,2.8116679191589355,-2.314924955368042
1749920263855997700,2.210997802734375,8.517988204956055,2.7276270389556885,-2.42124605178833
1749920263866010000,2.221010009765625,8.437538146972656,2.6383049488067627,-2.528130054473877
1749920263876024300,2.2310244140625,8.349321365356445,2.544564962387085,-2.635164976119995
1749920263886037800,2.241037841796875,8.254307746887207,2.4470651149749756,-2.7417850494384766
1749920263896051000,2.251051025390625,8.1539945602417,2.346343994140625,-2.8475100994110107
1749920263906064400,2.261064453125,8.049617767333984,2.2428228855133057,-2.9519450664520264
1749920263916077800,2.271077880859375,7.941652774810791,2.1365408897399902,-3.0547080039978027
1749920263926091000,2.281091064453125,7.83031702041626,2.027306079864502,-3.15549898147583
1749920263936104400,2.2911044921875,7.7159318923950195,1.9148889780044556,-3.2540619373321533
1749920263946118000,2.301117919921875,7.599061012268066,1.7991390228271484,-3.350209951400757
1749920263956131000,2.311131103515625,7.480517864227295,1.680116057395935,-3.443777084350586
1749920263966144300,2.321144287109375,7.361125946044922,1.5579849481582642,-3.534627914428711
1749920263976157400,2.331157470703125,7.241395950317383,1.432813048362732,-3.6225600242614746
1749920263986171100,2.341171142578125,7.121531963348389,1.3046449422836304,-3.707210063934326
1749920263996184300,2.351184326171875,7.001821994781494,1.1736340522766113,-3.788347005844116
1749920264006197500,2.361197509765625,6.88232421875,1.040086030960083,-3.8662800788879395
1749920264016210700,2.371210693359375,6.762701034545898,0.9044209718704224,-3.941472053527832
1749920264026224400,2.381224365234375,6.64262580871582,0.7671509981155396,-4.0145111083984375
1749920264036237600,2.391237548828125,6.521917819976807,0.6288679838180542,-4.086033821105957
1749920264046250800,2.401250732421875,6.400662899017334,0.4900369942188263,-4.156559944152832
1749920264056264200,2.41126416015625,6.2791008949279785,0.35087400674819946,-4.226436138153076
1749920264066277600,2.421277587890625,6.157488822937012,0.2113499939441681,-4.295764923095703
1749920264076290800,2.431290771484375,6.036341190338135,0.07146900147199631,-4.3644208908081055
1749920264086304300,2.44130419921875,5.916193962097168,-0.06849099695682526,-4.43257999420166
1749920264096317400,2.4513173828125,5.797185897827148,-0.2082200050354004,-4.50057315826416
1749920264106331000,2.461330810546875,5.67919397354126,-0.3475320041179657,-4.568685054779053
1749920264116344300,2.47134423828125,5.562171936035156,-0.48648801445961,-4.636905193328857
1749920264126357500,2.481357421875,5.446339130401611,-0.6252859830856323,-4.705005168914795
1749920264136370700,2.49137060546875,5.332277774810791,-0.7639439702033997,-4.77291202545166
1749920264146384100,2.501384033203125,5.22049617767334,-0.9023740291595459,-4.840625762939453
1749920264156397300,2.511397216796875,5.11122989654541,-1.0400840044021606,-4.907797813415527
1749920264166410800,2.52141064453125,5.004532814025879,-1.1766530275344849,-4.975244998931885
1749920264176424000,2.531423828125,4.9004058837890625,-1.3118000030517578,-5.044072151184082
1749920264186437400,2.541437255859375,4.798803806304932,-1.445283055305481,-5.114581108093262
1749920264196450600,2.551450439453125,4.699566841125488,-1.5768250226974487,-5.186371803283691
1749920264206464000,2.561464111328125,4.602461814880371,-1.706158995628357,-5.2586469650268555
1749920264216477400,2.5714775390625,4.505064964294434,-1.833063006401062,-5.331789970397949
1749920264226490600,2.58149072265625,4.405867099761963,-1.9570480585098267,-5.405951023101807
1749920264236503800,2.59150390625,4.304388046264648,-2.078685998916626,-5.481640815734863
1749920264246517200,2.601517333984375,4.202075958251953,-2.19931697845459,-5.5584611892700195
1749920264256530700,2.61153076171875,4.098656177520752,-2.318593978881836,-5.636702060699463
1749920264266543900,2.6215439453125,3.9951510429382324,-2.435807943344116,-5.716379165649414
1749920264276557000,2.63155712890625,3.89148211479187,-2.5518949031829834,-5.796473026275635
1749920264286570500,2.641570556640625,3.787992000579834,-2.666187047958374,-5.875503063201904
1749920264296584000,2.651583984375,3.685250997543335,-2.77974009513855,-5.953559875488281
1749920264306597000,2.66159716796875,3.5838630199432373,-2.892909049987793,-6.030433177947998
1749920264316610300,2.6716103515625,3.484266996383667,-3.0061841011047363,-6.106290817260742
1749920264326623700,2.681623779296875,3.386305093765259,-3.1190290451049805,-6.181363105773926
1749920264336637000,2.691636962890625,3.289999008178711,-3.2310619354248047,-6.255630970001221
1749920264346650400,2.701650390625,3.1953020095825195,-3.3420848846435547,-6.3289971351623535
1749920264356663800,2.711663818359375,3.102013111114502,-3.451751947402954,-6.401716232299805
1749920264366677200,2.72167724609375,3.009864091873169,-3.5598409175872803,-6.474187850952148
1749920264376690400,2.7316904296875,2.917570114135742,-3.664731979370117,-6.547088146209717
1749920264396717300,2.75171728515625,2.7338790893554688,-3.868346929550171,-6.693026065826416
1749920264406730500,2.76173046875,2.6435189247131348,-3.970249891281128,-6.764895915985107
1749920264416744000,2.771743896484375,2.554419994354248,-4.073051929473877,-6.835333824157715
1749920264426757000,2.781757080078125,2.467681884765625,-4.180779933929443,-6.901069164276123
1749920264436770600,2.7917705078125,2.3808560371398926,-4.293257236480713,-6.961894989013672
1749920264446784000,2.801783935546875,2.292841911315918,-4.4093098640441895,-7.017961025238037
1749920264456797200,2.811797119140625,2.206037998199463,-4.526027202606201,-7.070157051086426
1749920264466810600,2.821810546875,2.120313882827759,-4.643295764923096,-7.1178741455078125
1749920264476824000,2.831823974609375,2.035583972930908,-4.7608442306518555,-7.160762786865234
1749920264486837200,2.841837158203125,1.9514620304107666,-4.8782639503479,-7.19895076751709
1749920264496850400,2.851850341796875,1.8675719499588013,-4.99498176574707,-7.232405185699463
1749920264506864000,2.861864013671875,1.7837450504302979,-5.110397815704346,-7.26101016998291
1749920264516877300,2.871877197265625,1.6998200416564941,-5.224137783050537,-7.284879207611084
1749920264526890500,2.881890380859375,1.6154190301895142,-5.335982799530029,-7.304348945617676
1749920264546917000,2.901917236328125,1.443966031074524,-5.552849769592285,-7.329998016357422
1749920264556930600,2.9119306640625,1.3567249774932861,-5.657379150390625,-7.335718154907227
1749920264566944000,2.921944091796875,1.2681779861450195,-5.758926868438721,-7.336749076843262
1749920264576957200,2.931957275390625,1.1787270307540894,-5.85516881942749,-7.335363864898682
1749920264586970600,2.941970703125,1.0876649618148804,-5.948060035705566,-7.32932710647583
1749920264596983800,2.95198388671875,0.9955739974975586,-6.0372538566589355,-7.318480014801025
1749920264606997000,2.9619970703125,0.9034259915351868,-6.1224188804626465,-7.302979946136475
1749920264617010400,2.972010498046875,0.8113200068473816,-6.203627109527588,-7.284286975860596
1749920264627024000,2.98202392578125,0.7213929891586304,-6.279746055603027,-7.26278018951416
1749920264637037000,2.992037109375,0.6414620280265808,-6.345441818237305,-7.236775875091553
1749920264647050200,3.00205029296875,0.5697050094604492,-6.404513835906982,-7.20927619934082
1749920264657063700,3.012063720703125,0.5116739869117737,-6.4566121101379395,-7.1800031661987305
1749920264667077000,3.0220771484375,0.46564701199531555,-6.503507137298584,-7.150613784790039
1749920264677090300,3.03209033203125,0.4315730035305023,-6.546237945556641,-7.121219158172607
1749920264687103700,3.042103759765625,0.4074470102787018,-6.585381031036377,-7.092257022857666
1749920264697117200,3.0521171875,0.390408992767334,-6.62113618850708,-7.064427852630615
1749920264707130600,3.062130615234375,0.3783800005912781,-6.653479099273682,-7.038392066955566
1749920264717143800,3.072143798828125,0.37061798572540283,-6.682023048400879,-7.01484489440918
1749920264727157000,3.082156982421875,0.3669550120830536,-6.706174850463867,-6.994534969329834
1749920264737170400,3.09217041015625,0.3668619990348816,-6.725444793701172,-6.978061199188232
1749920264747183900,3.102183837890625,0.3693520128726959,-6.739607810974121,-6.965779781341553
1749920264757197300,3.112197265625,0.37491801381111145,-6.748537063598633,-6.957949161529541
1749920264767210800,3.122210693359375,0.38258200883865356,-6.752301216125488,-6.95461893081665
1749920264777224000,3.132223876953125,0.3926610052585602,-6.750776767730713,-6.955957889556885
1749920264787237000,3.142237060546875,0.40558600425720215,-6.743863105773926,-6.9620490074157715
1749920264797250600,3.15225048828125,0.42120400071144104,-6.731537818908691,-6.972865104675293
1749920264807264000,3.162263916015625,0.4389120042324066,-6.71404504776001,-6.988186836242676
1749920264817277200,3.172277099609375,0.4582819938659668,-6.691895961761475,-7.007585048675537
1749920264827290600,3.18229052734375,0.47917500138282776,-6.6657209396362305,-7.030447006225586
1749920264837304000,3.192303955078125,0.5016250014305115,-6.636231899261475,-7.0559821128845215
1749920264847317200,3.202317138671875,0.5256220102310181,-6.604205131530762,-7.083310127258301
1749920264857330700,3.21233056640625,0.5509470105171204,-6.570310115814209,-7.111724853515625
1749920264867344100,3.22234423828125,0.5770959854125977,-6.53497314453125,-7.140900135040283
1749920264877357300,3.232357421875,0.6027439832687378,-6.498532772064209,-7.170742988586426
1749920264887370800,3.242370849609375,0.6261739730834961,-6.46155309677124,-7.201005935668945
1749920264897384000,3.252384033203125,0.6461960077285767,-6.424839973449707,-7.231259822845459
1749920264907397600,3.262397705078125,0.6621959805488586,-6.389379978179932,-7.260923862457275
1749920264917410800,3.272410888671875,0.6737329959869385,-6.356116771697998,-7.2894392013549805
1749920264927424000,3.282424072265625,0.6802809834480286,-6.325806140899658,-7.316266059875488
1749920264937437400,3.2924375,0.6811000108718872,-6.29918098449707,-7.340672016143799
1749920264947451000,3.302450927734375,0.6759799718856812,-6.276923179626465,-7.361806869506836
1749920264957464000,3.312464111328125,0.6649569869041443,-6.259778022766113,-7.378665924072266
1749920264967477500,3.3224775390625,0.648048996925354,-6.248439788818359,-7.390149116516113
1749920264977490700,3.33249072265625,0.6256200075149536,-6.2433648109436035,-7.395308017730713
1749920264987504000,3.342504150390625,0.598816990852356,-6.2451090812683105,-7.39308500289917
1749920264997517600,3.352517578125,0.5675539970397949,-6.253186225891113,-7.383272171020508
1749920265007530800,3.36253076171875,0.5324130058288574,-6.267336845397949,-7.36539888381958
1749920265017544200,3.372544189453125,0.4966450035572052,-6.287388801574707,-7.338437080383301
1749920265037570800,3.39257080078125,0.4329279959201813,-6.345107078552246,-7.253965854644775
1749920265047584300,3.402584228515625,0.4061790108680725,-6.380232810974121,-7.198893070220947
1749920265067611000,3.42261083984375,0.35996198654174805,-6.459115028381348,-7.0700812339782715
1749920265077624300,3.432624267578125,0.33805298805236816,-6.50237512588501,-6.996595859527588
1749920265087637500,3.442637451171875,0.31578901410102844,-6.547368049621582,-6.917569160461426
1749920265097651000,3.45265087890625,0.29266101121902466,-6.593808174133301,-6.833277225494385
1749920265107664400,3.462664306640625,0.26795101165771484,-6.641154766082764,-6.748684883117676
1749920265117677800,3.472677734375,0.2417670041322708,-6.689911842346191,-6.659366130828857
1749920265127691000,3.48269091796875,0.21420300006866455,-6.740181922912598,-6.565607070922852
1749920265137704200,3.4927041015625,0.18530699610710144,-6.792063236236572,-6.4679179191589355
1749920265147718000,3.5027177734375,0.15499000251293182,-6.845428943634033,-6.366948127746582
1749920265157731000,3.51273095703125,0.11788800358772278,-6.899639129638672,-6.262302875518799
1749920265167744300,3.522744140625,0.07915999740362167,-6.955405235290527,-6.154304027557373
1749920265177757700,3.5327578125,0.03599800169467926,-7.0116801261901855,-6.042326927185059
1749920265187771100,3.542771240234375,-0.009321000427007675,-7.0683817863464355,-5.927009105682373
1749920265197784600,3.55278466796875,-0.05497699975967407,-7.125454902648926,-5.809617042541504
1749920265207797800,3.5627978515625,-0.10069099813699722,-7.182592868804932,-5.6911821365356445
1749920265217811200,3.572811279296875,-0.14639300107955933,-7.239694118499756,-5.572704792022705
1749920265227824600,3.58282470703125,-0.19331400096416473,-7.292543888092041,-5.457932949066162
1749920265237837800,3.592837890625,-0.23927399516105652,-7.341034889221191,-5.347282886505127
1749920265247851000,3.60285107421875,-0.2834320068359375,-7.38602876663208,-5.240577220916748
1749920265257864700,3.61286474609375,-0.3283520042896271,-7.430144786834717,-5.136740207672119
1749920265267878000,3.6228779296875,-0.37338098883628845,-7.473415851593018,-5.037374019622803
1749920265277891300,3.632891357421875,-0.4190559983253479,-7.5155930519104,-4.941512107849121
1749920265287904500,3.642904541015625,-0.4649749994277954,-7.556697845458984,-4.84899377822876
1749920265297918000,3.65291796875,-0.5105479955673218,-7.5967488288879395,-4.759127140045166
1749920265307931400,3.662931396484375,-0.5548089742660522,-7.635859966278076,-4.6709489822387695
1749920265317944600,3.672944580078125,-0.5967820286750793,-7.67411994934082,-4.583556175231934
1749920265327958000,3.6829580078125,-0.6357340216636658,-7.711525917053223,-4.496278762817383
1749920265337971500,3.692971435546875,-0.6711570024490356,-7.748015880584717,-4.408985137939453
1749920265347984600,3.702984619140625,-0.7027289867401123,-7.783405780792236,-4.322367191314697
1749920265357998000,3.712998046875,-0.7301130294799805,-7.817594051361084,-4.237310886383057
1749920265368011300,3.72301123046875,-0.7526839971542358,-7.850606918334961,-4.154435157775879
1749920265378025000,3.73302490234375,-0.7696729898452759,-7.884687900543213,-4.072755813598633
1749920265388038100,3.7430380859375,-0.7802579998970032,-7.917582035064697,-3.993774890899658
1749920265398051600,3.753051513671875,-0.784712016582489,-7.94927978515625,-3.9169270992279053
1749920265408064800,3.763064697265625,-0.7837389707565308,-7.979866981506348,-3.841830015182495
1749920265418078200,3.773078125,-0.7785980105400085,-8.009584426879883,-3.768109083175659
1749920265428091600,3.783091552734375,-0.7709900140762329,-8.038795471191406,-3.6951980590820312
1749920265438104800,3.793104736328125,-0.762802004814148,-8.06784439086914,-3.622657060623169
1749920265448118300,3.8031181640625,-0.7562559843063354,-8.096773147583008,-3.550424098968506
1749920265458131700,3.813131591796875,-0.7537660002708435,-8.125486373901367,-3.4785220623016357
1749920265468145000,3.823144775390625,-0.7569059729576111,-8.153799057006836,-3.407089948654175
1749920265478158300,3.833158447265625,-0.7654759883880615,-8.181612014770508,-3.3364710807800293
1749920265498185200,3.853185302734375,-0.791558027267456,-8.236823081970215,-3.198003053665161
1749920265508198400,3.863198486328125,-0.8064759969711304,-8.264908790588379,-3.1300270557403564
1749920265518211800,3.8732119140625,-0.8220459818840027,-8.29379653930664,-3.062530994415283
1749920265528225300,3.883225341796875,-0.8382920026779175,-8.32386302947998,-2.995068073272705
1749920265538238500,3.893238525390625,-0.8551149964332581,-8.35529613494873,-2.927489995956421
1749920265548251600,3.903251708984375,-0.8724079728126526,-8.38808536529541,-2.8598439693450928
1749920265558265300,3.913265380859375,-0.8917629718780518,-8.422319412231445,-2.7919669151306152
1749920265568278500,3.923278564453125,-0.9133970141410828,-8.458089828491211,-2.7232658863067627
1749920265578292000,3.9332919921875,-0.9383080005645752,-8.495656967163086,-2.6533679962158203
1749920265588305200,3.94330517578125,-0.9672060012817383,-8.535318374633789,-2.581913948059082
1749920265598318800,3.95331884765625,-1.0002080202102661,-8.57733154296875,-2.5087029933929443
1749920265608332000,3.96333203125,-1.0366950035095215,-8.62179183959961,-2.4337470531463623
1749920265618345200,3.97334521484375,-1.0758219957351685,-8.668611526489258,-2.3572518825531006
1749920265628358700,3.983358642578125,-1.1170669794082642,-8.717636108398438,-2.279529094696045
1749920265638372000,3.9933720703125,-1.16012704372406,-8.768312454223633,-2.202821969985962
1749920265648385500,4.003385498046875,-1.2051119804382324,-8.820329666137695,-2.127279043197632
1749920265668412000,4.023411865234375,-1.300799012184143,-8.926961898803711,-1.9799009561538696
1749920265678425300,4.03342529296875,-1.350661039352417,-8.980822563171387,-1.9079289436340332
1749920265688438800,4.043438720703125,-1.400805950164795,-9.034347534179688,-1.8369810581207275
1749920265698452200,4.0534521484375,-1.4496990442276,-9.087099075317383,-1.7669830322265625
1749920265708465400,4.06346533203125,-1.496770977973938,-9.13809585571289,-1.6985119581222534
1749920265718478600,4.073478515625,-1.5416699647903442,-9.186247825622559,-1.632262945175171
1749920265728492000,4.083491943359375,-1.5841480493545532,-9.230623245239258,-1.5689200162887573
1749920265738505500,4.09350537109375,-1.6240509748458862,-9.27045726776123,-1.5091969966888428
1749920265748519000,4.103518798828125,-1.6615550518035889,-9.305203437805176,-1.4538359642028809
1749920265758532400,4.113532470703125,-1.695294976234436,-9.335393905639648,-1.4025529623031616
1749920265768545800,4.1235458984375,-1.7243889570236206,-9.361156463623047,-1.3558690547943115
1749920265778559000,4.13355908203125,-1.74835205078125,-9.38280963897705,-1.3140699863433838
1749920265798585900,4.1535859375,-1.7856639623641968,-9.412576675415039,-1.2482579946517944
1749920265808599000,4.16359912109375,-1.8025939464569092,-9.420022010803223,-1.225903034210205
1749920265818612500,4.173612548828125,-1.8192609548568726,-9.422988891601562,-1.2109659910202026
1749920265828626000,4.1836259765625,-1.8366249799728394,-9.42189884185791,-1.2037080526351929
1749920265838639400,4.193639404296875,-1.8556040525436401,-9.417421340942383,-1.2039480209350586
1749920265848652500,4.203652587890625,-1.8768589496612549,-9.410481452941895,-1.210718035697937
1749920265858666000,4.213666015625,-1.8996180295944214,-9.402215957641602,-1.2221750020980835
1749920265868679400,4.223679443359375,-1.9224779605865479,-9.393198013305664,-1.237879991531372
1749920265878692600,4.233692626953125,-1.9443540573120117,-9.383768081665039,-1.2579419612884521
1749920265888706000,4.2437060546875,-1.9644819498062134,-9.374250411987305,-1.2822459936141968
1749920265898719500,4.253719482421875,-1.9810140132904053,-9.3644437789917,-1.312770962715149
1749920265908733000,4.26373291015625,-1.9939260482788086,-9.354741096496582,-1.3446589708328247
1749920265918746000,4.27374609375,-2.0043699741363525,-9.34438705444336,-1.3825219869613647
1749920265928759600,4.283759521484375,-2.0130720138549805,-9.333267211914062,-1.4260419607162476
1749920265938773000,4.29377294921875,-2.0200650691986084,-9.322370529174805,-1.4724969863891602
1749920265948786200,4.3037861328125,-2.025531053543091,-9.311708450317383,-1.5213309526443481
1749920265958799600,4.313799560546875,-2.0241260528564453,-9.302074432373047,-1.5727839469909668
1749920265968813000,4.32381298828125,-2.020111083984375,-9.292699813842773,-1.6270979642868042
1749920265978826200,4.333826171875,-2.0109150409698486,-9.284431457519531,-1.684527039527893
1749920265988839700,4.343839599609375,-1.9987900257110596,-9.276844024658203,-1.7449469566345215
1749920265998853000,4.35385302734375,-1.9859390258789062,-9.269414901733398,-1.807502031326294
1749920266008866300,4.3638662109375,-1.9730550050735474,-9.262030601501465,-1.8712610006332397
1749920266018879700,4.373879638671875,-1.9606120586395264,-9.254636764526367,-1.9351179599761963
1749920266028893200,4.38389306640625,-1.9486780166625977,-9.247172355651855,-1.9982249736785889
1749920266038906400,4.39390625,-1.935405969619751,-9.240336418151855,-2.058645009994507
1749920266048919800,4.403919921875,-1.9219399690628052,-9.23335075378418,-2.117465019226074
1749920266058933200,4.413933349609375,-1.9077650308609009,-9.226236343383789,-2.174367904663086
1749920266068946700,4.42394677734375,-1.8928070068359375,-9.218890190124512,-2.2278060913085938
1749920266078959900,4.4339599609375,-1.8756979703903198,-9.211687088012695,-2.2785799503326416
1749920266088973300,4.443973388671875,-1.8559190034866333,-9.204818725585938,-2.326503038406372
1749920266098986500,4.453986572265625,-1.8332829475402832,-9.19891357421875,-2.3707709312438965
1749920266109000000,4.464,-1.8087749481201172,-9.19361686706543,-2.412764072418213
1749920266119013400,4.474013427734375,-1.7833600044250488,-9.1885404586792,-2.4538791179656982
1749920266129026800,4.48402685546875,-1.7578990459442139,-9.183500289916992,-2.4949591159820557
1749920266139040300,4.494040283203125,-1.732774019241333,-9.178396224975586,-2.536423921585083
1749920266149053400,4.504053466796875,-1.7080899477005005,-9.17314338684082,-2.5780770778656006
1749920266159067000,4.51406689453125,-1.6848679780960083,-9.167112350463867,-2.6208579540252686
1749920266169080000,4.524080078125,-1.663159966468811,-9.160417556762695,-2.6639089584350586
1749920266179093800,4.53409375,-1.6437050104141235,-9.153129577636719,-2.7057130336761475
1749920266189107000,4.54410693359375,-1.625991940498352,-9.14543342590332,-2.7468791007995605
1749920266199120400,4.554120361328125,-1.60942804813385,-9.137381553649902,-2.7881240844726562
1749920266209133800,4.5641337890625,-1.5934300422668457,-9.129029273986816,-2.8297719955444336
1749920266219147000,4.57414697265625,-1.5773409605026245,-9.120265007019043,-2.872188091278076
1749920266229160400,4.584160400390625,-1.5607069730758667,-9.110865592956543,-2.915919065475464
1749920266239174000,4.594173828125,-1.5437259674072266,-9.101216316223145,-2.959975004196167
1749920266249187300,4.604187255859375,-1.5255850553512573,-9.09131908416748,-3.0040640830993652
1749920266259200500,4.614200439453125,-1.5054949522018433,-9.0811767578125,-3.048038959503174
1749920266269214000,4.6242138671875,-1.4831500053405762,-9.070779800415039,-3.0919950008392334
1749920266279227400,4.634227294921875,-1.4590590000152588,-9.060136795043945,-3.135875940322876
1749920266289240600,4.644240478515625,-1.4333640336990356,-9.049843788146973,-3.178056001663208
1749920266299254300,4.654254150390625,-1.405735969543457,-9.039836883544922,-3.218302011489868
1749920266309267700,4.664267822265625,-1.3778560161590576,-9.029698371887207,-3.2575619220733643
1749920266319281000,4.674281005859375,-1.349666953086853,-9.019392013549805,-3.2958569526672363
1749920266329294600,4.684294677734375,-1.3212510347366333,-9.008883476257324,-3.333336114883423
1749920266339307800,4.694307861328125,-1.292665958404541,-8.99819564819336,-3.3700060844421387
1749920266349321000,4.704321044921875,-1.26385498046875,-8.988237380981445,-3.4041531085968018
1749920266359334400,4.71433447265625,-1.234866976737976,-8.978949546813965,-3.436156988143921
1749920266369347800,4.724347900390625,-1.205772042274475,-8.970163345336914,-3.4670209884643555
1749920266379361300,4.734361328125,-1.1766270399093628,-8.961825370788574,-3.4971489906311035
1749920266389374500,4.74437451171875,-1.1464879512786865,-8.953636169433594,-3.5272860527038574
1749920266399388200,4.75438818359375,-1.1154500246047974,-8.945528984069824,-3.557742118835449
1749920266409401300,4.7644013671875,-1.084069013595581,-8.937859535217285,-3.5878589153289795
1749920266419414800,4.774414794921875,-1.0524840354919434,-8.930791854858398,-3.6172080039978027
1749920266429428200,4.78442822265625,-1.0205609798431396,-8.924318313598633,-3.6456410884857178
1749920266439441400,4.79444140625,-0.9878870248794556,-8.918664932250977,-3.671386957168579
1749920266449454800,4.804454833984375,-0.9537760019302368,-8.913683891296387,-3.6948978900909424
1749920266459468300,4.81446826171875,-0.9178079962730408,-8.9093017578125,-3.7165510654449463
1749920266469481700,4.824481689453125,-0.8799690008163452,-8.905572891235352,-3.7364580631256104
1749920266479495000,4.834494873046875,-0.8400580286979675,-8.90263557434082,-3.754611015319824
1749920266489508400,4.84450830078125,-0.7979419827461243,-8.900601387023926,-3.771106004714966
1749920266499521800,4.854521728515625,-0.7543489933013916,-8.899333953857422,-3.786107063293457
1749920266509535000,4.864534912109375,-0.7094780206680298,-8.899016380310059,-3.799401044845581
1749920266519548400,4.87454833984375,-0.6636530160903931,-8.899759292602539,-3.8109989166259766
1749920266529561600,4.8845615234375,-0.6166819930076599,-8.901494979858398,-3.8211910724639893
1749920266539575000,4.894574951171875,-0.5682389736175537,-8.90418529510498,-3.8301429748535156
1749920266549588500,4.90458837890625,-0.5184080004692078,-8.907720565795898,-3.838128089904785
1749920266559601700,4.9146015625,-0.4688040018081665,-8.910989761352539,-3.8463730812072754
1749920266569615000,4.924614990234375,-0.4203689992427826,-8.913552284240723,-3.8550310134887695
1749920266579628500,4.934628662109375,-0.3740310072898865,-8.914998054504395,-3.8643860816955566
1749920266589642000,4.94464208984375,-0.3304220139980316,-8.915109634399414,-3.8746800422668457
1749920266599655200,4.9546552734375,-0.28606700897216797,-8.91541576385498,-3.884795904159546
1749920266609668600,4.964668701171875,-0.240774005651474,-8.915814399719238,-3.894911050796509
1749920266619682000,4.97468212890625,-0.19436900317668915,-8.916231155395508,-3.905121088027954
1749920266629695200,4.9846953125,-0.1468529999256134,-8.916621208190918,-3.9154300689697266
1749920266639708700,4.994708740234375,-0.09855800122022629,-8.91697883605957,-3.9257850646972656
1749920266649722000,5.00472216796875,-0.050259001553058624,-8.91735553741455,-3.9359800815582275
1749920266659735300,5.0147353515625,-0.0028989999555051327,-8.917825698852539,-3.9457459449768066
1749920266669748700,5.024748779296875,0.042796000838279724,-8.918100357055664,-3.955533981323242
1749920266679762200,5.03476220703125,0.08639899641275406,-8.91810131072998,-3.96533203125
1749920266689775400,5.044775390625,0.12759000062942505,-8.917753219604492,-3.975198984146118
1749920266699788800,5.054788818359375,0.16480599343776703,-8.917436599731445,-3.9830501079559326
1749920266709802200,5.06480224609375,0.19809800386428833,-8.917021751403809,-3.989577054977417
1749920266719815700,5.074815673828125,0.22870999574661255,-8.916572570800781,-3.9951179027557373
1749920266729828900,5.084828857421875,0.25766700506210327,-8.916054725646973,-4.000074863433838
1749920266739842600,5.094842529296875,0.2851170003414154,-8.914265632629395,-4.0071210861206055
1749920266749855700,5.104855712890625,0.31160399317741394,-8.91094970703125,-4.016717910766602
1749920266759869000,5.114868896484375,0.3375749886035919,-8.905946731567383,-4.029044151306152
1749920266769882400,5.12488232421875,0.36258500814437866,-8.89954662322998,-4.043088912963867
1749920266779896000,5.13489599609375,0.38705798983573914,-8.891962051391602,-4.058745861053467
1749920266789909200,5.1449091796875,0.4102410078048706,-8.883907318115234,-4.074817180633545
1749920266799922700,5.154922607421875,0.4314740002155304,-8.87625789642334,-4.090081214904785
1749920266809936100,5.16493603515625,0.4515340030193329,-8.868895530700684,-4.1048150062561035
1749920266819949300,5.17494921875,0.47071701288223267,-8.861929893493652,-4.118988990783691
1749920266829962800,5.184962646484375,0.4892350137233734,-8.855448722839355,-4.132491111755371
1749920266839976200,5.19497607421875,0.5055059790611267,-8.84907341003418,-4.146048069000244
1749920266849989600,5.20498974609375,0.5216730237007141,-8.843162536621094,-4.158785820007324
1749920266860002800,5.2150029296875,0.5378689765930176,-8.837624549865723,-4.170781135559082
1749920266870016300,5.225016357421875,0.5539439916610718,-8.832365036010742,-4.182116985321045
1749920266880029700,5.23502978515625,0.5695040225982666,-8.827292442321777,-4.19290018081665
1749920266890043000,5.24504296875,0.5841429829597473,-8.822330474853516,-4.203264236450195
1749920266900056600,5.255056640625,0.5975440144538879,-8.8169527053833,-4.214487075805664
1749920266910069800,5.26506982421875,0.6095619797706604,-8.811041831970215,-4.226834774017334
1749920266920083200,5.275083251953125,0.6194779872894287,-8.804697036743164,-4.240171909332275
1749920266930096400,5.285096435546875,0.6278650164604187,-8.79842472076416,-4.2535600662231445
1749920266940109800,5.29510986328125,0.6346920132637024,-8.792284965515137,-4.266870975494385
1749920266950123000,5.305123046875,0.6400820016860962,-8.786355972290039,-4.279883861541748
1749920266960136400,5.315136474609375,0.645238995552063,-8.78124713897705,-4.291012763977051
1749920266970150000,5.32514990234375,0.6502320170402527,-8.776798248291016,-4.300666809082031
1749920266980163000,5.3351630859375,0.6549109816551208,-8.772801399230957,-4.3093461990356445
1749920266990176500,5.345176513671875,0.6588960289955139,-8.769128799438477,-4.317343235015869
1749920267000190000,5.35518994140625,0.660843014717102,-8.765379905700684,-4.325479030609131
1749920267010203100,5.365203125,0.6605219841003418,-8.761680603027344,-4.333529949188232
1749920267020216600,5.375216552734375,0.6580529808998108,-8.758431434631348,-4.340676784515381
1749920267030230000,5.38522998046875,0.6537330150604248,-8.755956649780273,-4.346219062805176
1749920267040243500,5.395243408203125,0.6486279964447021,-8.75398063659668,-4.350762844085693
1749920267050256600,5.405256591796875,0.6427339911460876,-8.752615928649902,-4.354067802429199
1749920267060269800,5.415269775390625,0.6352249979972839,-8.752016067504883,-4.355813026428223
1749920267070283500,5.425283447265625,0.6260560154914856,-8.752253532409668,-4.355815887451172
1749920267080296700,5.435296630859375,0.6154530048370361,-8.753301620483398,-4.354106903076172
1749920267090310100,5.44531005859375,0.6035109758377075,-8.754530906677246,-4.352163791656494
1749920267100323600,5.455323486328125,0.5893489718437195,-8.755949020385742,-4.350110054016113
1749920267110337000,5.4653369140625,0.5750420093536377,-8.75798225402832,-4.346732139587402
1749920267120350200,5.47535009765625,0.560778021812439,-8.760637283325195,-4.342061996459961
1749920267130363600,5.48536376953125,0.5463969707489014,-8.763837814331055,-4.336276054382324
1749920267140377000,5.495377197265625,0.5321559906005859,-8.767552375793457,-4.329432964324951
1749920267150390500,5.505390625,0.5183699727058411,-8.770963668823242,-4.323159217834473
1749920267160403700,5.51540380859375,0.5054060220718384,-8.774251937866211,-4.316984176635742
1749920267170417200,5.525417236328125,0.4936380088329315,-8.777742385864258,-4.310051918029785
1749920267180430600,5.5354306640625,0.48347601294517517,-8.7813081741333,-4.302649974822998
1749920267190443800,5.54544384765625,0.4742110073566437,-8.785077095031738,-4.2947258949279785
1749920267200457200,5.555457275390625,0.46605199575424194,-8.788975715637207,-4.28646993637085
1749920267210470700,5.565470703125,0.4594860076904297,-8.792548179626465,-4.278802871704102
1749920267220483800,5.57548388671875,0.45441100001335144,-8.795536994934082,-4.272327899932861
1749920267230497300,5.585497314453125,0.4503740072250366,-8.797782897949219,-4.2674970626831055
1749920267240510500,5.595510498046875,0.446476012468338,-8.799181938171387,-4.264657020568848
1749920267250524000,5.60552392578125,0.4422209858894348,-8.801026344299316,-4.260826110839844
1749920267260537300,5.615537353515625,0.43770501017570496,-8.803361892700195,-4.255928993225098
1749920267270550800,5.62555078125,0.4333359897136688,-8.806063652038574,-4.250218868255615
1749920267280564200,5.635564208984375,0.42914900183677673,-8.80891227722168,-4.244196891784668
1749920267290577700,5.64557763671875,0.424032986164093,-8.811216354370117,-4.239668846130371
1749920267300590800,5.6555908203125,0.4177339971065521,-8.81334400177002,-4.235695838928223
1749920267310604000,5.66560400390625,0.4113290011882782,-8.81529426574707,-4.232143878936768
1749920267320617500,5.675617431640625,0.4050939977169037,-8.817076683044434,-4.228903770446777
1749920267330631000,5.685630859375,0.3989279866218567,-8.818868637084961,-4.225611209869385
1749920267340644400,5.695644287109375,0.3927220106124878,-8.82079029083252,-4.222034931182861
1749920267350657800,5.70565771484375,0.38672199845314026,-8.823004722595215,-4.217799186706543
1749920267360671200,5.715671142578125,0.3810490071773529,-8.825672149658203,-4.212544918060303
1749920267370684400,5.725684326171875,0.37568399310112,-8.828838348388672,-4.20615816116333
1749920267380697600,5.735697509765625,0.37069499492645264,-8.832525253295898,-4.198544025421143
1749920267390711000,5.7457109375,0.36767899990081787,-8.837911605834961,-4.186266899108887
1749920267400724500,5.755724365234375,0.3651899993419647,-8.843765258789062,-4.1726861000061035
1749920267410738000,5.765738037109375,0.36302998661994934,-8.850030899047852,-4.157909870147705
1749920267420751000,5.775751220703125,0.36083701252937317,-8.856644630432129,-4.142137050628662
1749920267430764500,5.7857646484375,0.35816699266433716,-8.863516807556152,-4.125650882720947
1749920267440778000,5.795778076171875,0.3547210097312927,-8.870556831359863,-4.108728885650635
1749920267450791200,5.805791259765625,0.3491469919681549,-8.877750396728516,-4.091545104980469
1749920267460804600,5.8158046875,0.34324899315834045,-8.884767532348633,-4.07446813583374
1749920267470818000,5.825818115234375,0.3375000059604645,-8.8917875289917,-4.05698299407959
1749920267480831200,5.835831298828125,0.3322429955005646,-8.898785591125488,-4.039046764373779
1749920267490844700,5.8458447265625,0.3277199864387512,-8.905771255493164,-4.02058219909668
1749920267500858000,5.855858154296875,0.32402899861335754,-8.9127779006958,-4.0015082359313965
1749920267510871300,5.865871337890625,0.32068198919296265,-8.919625282287598,-3.9831130504608154
1749920267520884700,5.875884765625,0.3171980082988739,-8.92658805847168,-3.9648749828338623
1749920267530898200,5.885898193359375,0.3140980005264282,-8.934432983398438,-3.944422960281372
1749920267540911400,5.895911376953125,0.31117498874664307,-8.943469047546387,-3.9212350845336914
1749920267550925000,5.905925048828125,0.3081490099430084,-8.954011917114258,-3.8948380947113037
1749920267560938200,5.915938232421875,0.30473700165748596,-8.966218948364258,-3.865117073059082
1749920267570951400,5.925951416015625,0.30072298645973206,-8.979649543762207,-3.8336899280548096
1749920267580964900,5.93596484375,0.29641398787498474,-8.994017601013184,-3.800909996032715
1749920267590978300,5.945978271484375,0.29253798723220825,-9.008748054504395,-3.7674529552459717
1749920267600991500,5.955991455078125,0.2900739908218384,-9.023113250732422,-3.734165906906128
1749920267611005000,5.9660048828125,0.2886660099029541,-9.037301063537598,-3.7006609439849854
1749920267621018000,5.97601806640625,0.2882170081138611,-9.051183700561523,-3.667081117630005
1749920267631031800,5.98603173828125,0.2884500026702881,-9.064668655395508,-3.6336669921875
1749920267641045000,5.996044921875,0.28916099667549133,-9.077404975891113,-3.6011550426483154
1749920267651058400,6.006058349609375,0.2895149886608124,-9.089829444885254,-3.5689640045166016
1749920267661071600,6.016071533203125,0.28898200392723083,-9.102060317993164,-3.5369980335235596
1749920267671085000,6.0260849609375,0.2873130142688751,-9.114184379577637,-3.5051488876342773
1749920267681098500,6.036098388671875,0.28450700640678406,-9.126222610473633,-3.4734280109405518
1749920267691111700,6.046111572265625,0.28075599670410156,-9.138142585754395,-3.441912889480591
1749920267701125000,6.056125,0.2764039933681488,-9.149877548217773,-3.410742998123169
1749920267711138600,6.066138671875,0.2723050117492676,-9.161714553833008,-3.3793818950653076
1749920267721151700,6.07615185546875,0.26974400877952576,-9.173648834228516,-3.3478269577026367
1749920267731165200,6.086165283203125,0.2688339948654175,-9.185120582580566,-3.317257881164551
1749920267741178400,6.096178466796875,0.2699989974498749,-9.196096420288086,-3.2877769470214844
1749920267751191800,6.10619189453125,0.27312400937080383,-9.206596374511719,-3.2593870162963867
1749920267761205200,6.116205322265625,0.27771300077438354,-9.216678619384766,-3.231987953186035
1749920267771218400,6.126218505859375,0.283284991979599,-9.226396560668945,-3.2054359912872314
1749920267781231900,6.13623193359375,0.28962698578834534,-9.235758781433105,-3.179650068283081
1749920267791245300,6.146245361328125,0.2967900037765503,-9.2449369430542,-3.153857946395874
1749920267801258800,6.1562587890625,0.30571800470352173,-9.254261016845703,-3.127379894256592
1749920267811272200,6.166272216796875,0.3162569999694824,-9.26356315612793,-3.1005659103393555
1749920267821285600,6.17628564453125,0.32798799872398376,-9.272600173950195,-3.073875904083252
1749920267831298800,6.186298828125,0.3408679962158203,-9.281362533569336,-3.047278881072998
1749920267841312000,6.19631201171875,0.35483500361442566,-9.289846420288086,-3.020733118057251
1749920267851325700,6.20632568359375,0.36987099051475525,-9.298018455505371,-2.994213104248047
1749920267861339000,6.2163388671875,0.3868449926376343,-9.305835723876953,-2.9677469730377197
1749920267871352300,6.226352294921875,0.40584298968315125,-9.31330680847168,-2.9413208961486816
1749920267881365500,6.236365478515625,0.42506399750709534,-9.321052551269531,-2.9130849838256836
1749920267891379000,6.24637890625,0.4432139992713928,-9.328943252563477,-2.8835830688476562
1749920267901392400,6.256392333984375,0.4603540003299713,-9.336908340454102,-2.853276014328003
1749920267911405600,6.266405517578125,0.4759329855442047,-9.344861030578613,-2.8226020336151123
1749920267921419000,6.2764189453125,0.48952600359916687,-9.352776527404785,-2.7918860912323
1749920267931432400,6.286432373046875,0.5010700225830078,-9.360738754272461,-2.761138916015625
1749920267941445600,6.296445556640625,0.5101569890975952,-9.368748664855957,-2.730452060699463
1749920267951459000,6.306458984375,0.5188230276107788,-9.37671184539795,-2.6993839740753174
1749920267961472500,6.316472412109375,0.5268669724464417,-9.384544372558594,-2.6682000160217285
1749920267971485700,6.326485595703125,0.534171998500824,-9.392047882080078,-2.637507915496826
1749920267981499100,6.3364990234375,0.540444016456604,-9.399381637573242,-2.607050895690918
1749920267991512300,6.34651220703125,0.545458972454071,-9.406683921813965,-2.576612949371338
1749920268001525800,6.35652587890625,0.5489919781684875,-9.414058685302734,-2.546060085296631
1749920268011539200,6.366539306640625,0.5508540272712708,-9.42158317565918,-2.5153279304504395
1749920268021552600,6.376552734375,0.5508970022201538,-9.429353713989258,-2.484286069869995
1749920268031565800,6.38656591796875,0.5489680171012878,-9.43753433227539,-2.4526219367980957
1749920268041579300,6.396579345703125,0.5449640154838562,-9.446346282958984,-2.419909954071045
1749920268051592700,6.4065927734375,0.5384380221366882,-9.454612731933594,-2.3890058994293213
1749920268061606000,6.41660595703125,0.5287709832191467,-9.462313652038574,-2.3599600791931152
1749920268071619000,6.426619140625,0.515550971031189,-9.469456672668457,-2.3326809406280518
1749920268081632500,6.436632568359375,0.49878600239753723,-9.476088523864746,-2.3069241046905518
1749920268091646000,6.44664599609375,0.4799030125141144,-9.482806205749512,-2.280985116958618
1749920268101659400,6.456659423828125,0.4596799910068512,-9.489141464233398,-2.2559759616851807
1749920268111672600,6.466672607421875,0.4378170073032379,-9.495035171508789,-2.232150077819824
1749920268121686000,6.47668603515625,0.41495999693870544,-9.50051498413086,-2.2094879150390625
1749920268131699500,6.486699462890625,0.3914720118045807,-9.505617141723633,-2.1879351139068604
1749920268141712600,6.496712646484375,0.3674049973487854,-9.510377883911133,-2.1674180030822754
1749920268151725800,6.506725830078125,0.34262698888778687,-9.514808654785156,-2.147891044616699
1749920268161739300,6.5167392578125,0.32076698541641235,-9.519289016723633,-2.1302831172943115
1749920268171752700,6.526752685546875,0.30011698603630066,-9.523538589477539,-2.1142780780792236
1749920268181766100,6.53676611328125,0.2777960002422333,-9.527121543884277,-2.099863052368164
1749920268191779300,6.546779296875,0.2517710030078888,-9.528749465942383,-2.090461015701294
1749920268201792800,6.556792724609375,0.22288599610328674,-9.529546737670898,-2.082637071609497
1749920268211806000,6.566805908203125,0.19050799310207367,-9.529427528381348,-2.0761959552764893
1749920268221819400,6.5768193359375,0.1542939990758896,-9.52829360961914,-2.0709071159362793
1749920268231832600,6.58683251953125,0.11437399685382843,-9.526041030883789,-2.0665979385375977
1749920268241846000,6.596845947265625,0.07117799669504166,-9.522549629211426,-2.0632059574127197
1749920268251859200,6.606859130859375,0.026572000235319138,-9.51753044128418,-2.0609450340270996
1749920268261872600,6.61687255859375,-0.02061600051820278,-9.510968208312988,-2.0599350929260254
1749920268271886000,6.626885986328125,-0.07041999697685242,-9.502701759338379,-2.060504913330078
1749920268281899300,6.636899169921875,-0.12298300117254257,-9.492582321166992,-2.0629780292510986
1749920268291912700,6.64691259765625,-0.17839400470256805,-9.480463027954102,-2.0676419734954834
1749920268301926100,6.656926025390625,-0.23668000102043152,-9.466194152832031,-2.074712038040161
1749920268311939300,6.666939208984375,-0.29708200693130493,-9.450096130371094,-2.082318067550659
1749920268321952800,6.676952880859375,-0.3595309853553772,-9.431950569152832,-2.090672016143799
1749920268331966200,6.68696630859375,-0.4247629940509796,-9.411001205444336,-2.101969003677368
1749920268341979400,6.6969794921875,-0.4923839867115021,-9.387015342712402,-2.1167728900909424
1749920268351992800,6.706992919921875,-0.5617460012435913,-9.360784530639648,-2.1340160369873047
1749920268362006300,6.71700634765625,-0.6321889758110046,-9.332175254821777,-2.154649019241333
1749920268372019700,6.727019775390625,-0.7028040289878845,-9.301860809326172,-2.177824020385742
1749920268382033000,6.737032958984375,-0.772491991519928,-9.270444869995117,-2.2040719985961914
1749920268392046000,6.747046142578125,-0.8405299782752991,-9.23814582824707,-2.234025001525879
1749920268402059500,6.7570595703125,-0.9069120287895203,-9.20458984375,-2.2681870460510254
1749920268412073000,6.767072998046875,-0.9718819856643677,-9.169240951538086,-2.306796073913574
1749920268422086100,6.777086181640625,-1.037904977798462,-9.13087272644043,-2.348875045776367
1749920268432099600,6.787099609375,-1.1048729419708252,-9.089399337768555,-2.394078016281128
1749920268442113000,6.797113037109375,-1.1727230548858643,-9.044665336608887,-2.4420790672302246
1749920268452126200,6.807126220703125,-1.2414170503616333,-8.996424674987793,-2.492655038833618
1749920268462139600,6.8171396484375,-1.3108580112457275,-8.944388389587402,-2.5456130504608154
1749920268472153000,6.827153076171875,-1.381108045578003,-8.888354301452637,-2.600684881210327
1749920268482166300,6.837166259765625,-1.4524409770965576,-8.82835865020752,-2.6573410034179688
1749920268492179700,6.8471796875,-1.5252989530563354,-8.764652252197266,-2.714906930923462
1749920268502193200,6.857193115234375,-1.6000770330429077,-8.69760513305664,-2.7728030681610107
1749920268512206600,6.86720654296875,-1.677137017250061,-8.627622604370117,-2.830566883087158
1749920268522219800,6.8772197265625,-1.7563140392303467,-8.558911323547363,-2.886025905609131
1749920268532233000,6.88723291015625,-1.837641954421997,-8.492223739624023,-2.938744068145752
1749920268542246400,6.897246337890625,-1.9208110570907593,-8.427840232849121,-2.988724946975708
1749920268552259800,6.907259765625,-2.0052590370178223,-8.365626335144043,-3.036320924758911
1749920268562273000,6.91727294921875,-2.0911710262298584,-8.301366806030273,-3.0841610431671143
1749920268572286500,6.927286376953125,-2.1781249046325684,-8.234842300415039,-3.1326749324798584
1749920268582299600,6.937299560546875,-2.266033887863159,-8.165802001953125,-3.182147979736328
1749920268592313000,6.94731298828125,-2.3550050258636475,-8.093796730041504,-3.2334699630737305
1749920268602326300,6.957326171875,-2.445167064666748,-8.018654823303223,-3.286561965942383
1749920268612339700,6.967339599609375,-2.5366320610046387,-7.940306186676025,-3.341280937194824
1749920268622353200,6.977353271484375,-2.6295130252838135,-7.858800888061523,-3.397430896759033
1749920268632366600,6.98736669921875,-2.7239561080932617,-7.7743120193481445,-3.454775094985962
1749920268642379800,6.9973798828125,-2.8201398849487305,-7.687146186828613,-3.5130391120910645
1749920268652393200,7.007393310546875,-2.918256998062134,-7.597716808319092,-3.5719470977783203
1749920268662406700,7.01740673828125,-3.0184268951416016,-7.506427764892578,-3.6312880516052246
1749920268672419800,7.027419921875,-3.1206040382385254,-7.413582801818848,-3.6909360885620117
1749920268682433000,7.03743310546875,-3.222943067550659,-7.318760871887207,-3.752716064453125
1749920268692446500,7.047446533203125,-3.32485294342041,-7.222135066986084,-3.8162200450897217
1749920268702460000,7.0574599609375,-3.4260470867156982,-7.123854160308838,-3.881005048751831
1749920268712473000,7.06747314453125,-3.5263359546661377,-7.024058818817139,-3.946690082550049
1749920268722486500,7.077486572265625,-3.6253819465637207,-6.922842025756836,-4.013001918792725
1749920268732499700,7.087499755859375,-3.722714900970459,-6.82026481628418,-4.079850196838379
1749920268742513200,7.09751318359375,-3.817884922027588,-6.716425895690918,-4.147152900695801
1749920268752526600,7.107526611328125,-3.912869930267334,-6.611516952514648,-4.21550989151001
1749920268762539800,7.117539794921875,-4.0073018074035645,-6.505654811859131,-4.285038948059082
1749920268772553000,7.127552978515625,-4.100827217102051,-6.3989081382751465,-4.3557939529418945
1749920268782566400,7.13756640625,-4.193246841430664,-6.29129695892334,-4.427649021148682
1749920268792579800,7.147579833984375,-4.284449100494385,-6.182863235473633,-4.500400066375732
1749920268802593300,7.15759326171875,-4.3742828369140625,-6.07371187210083,-4.573873996734619
1749920268812606500,7.1676064453125,-4.4625420570373535,-5.964028835296631,-4.6478657722473145
1749920268822620000,7.177619873046875,-4.5489301681518555,-5.854046821594238,-4.722163200378418
1749920268832633000,7.187633056640625,-4.633036136627197,-5.743989944458008,-4.796559810638428
1749920268842646500,7.197646484375,-4.714358806610107,-5.634022235870361,-4.870890140533447
1749920268852659700,7.20765966796875,-4.792448997497559,-5.524223804473877,-4.945041179656982
1749920268862673200,7.217673095703125,-4.866987228393555,-5.414635181427002,-5.018950939178467
1749920268872686600,7.2276865234375,-4.937131881713867,-5.304510116577148,-5.093268871307373
1749920268882699800,7.23769970703125,-5.002860069274902,-5.1943440437316895,-5.167924880981445
1749920268892713000,7.247712890625,-5.064734935760498,-5.08435583114624,-5.242539882659912
1749920268902726400,7.257726318359375,-5.12306022644043,-4.974564075469971,-5.317077159881592
1749920268912739800,7.26773974609375,-5.178338050842285,-4.865067958831787,-5.391435146331787
1749920268922753000,7.2777529296875,-5.231151103973389,-4.755918979644775,-5.465521812438965
1749920268932766500,7.287766357421875,-5.28220796585083,-4.646949768066406,-5.539186000823975
1749920268942779600,7.297779541015625,-5.332308769226074,-4.537774085998535,-5.612166881561279
1749920268952793000,7.30779296875,-5.382099151611328,-4.428061008453369,-5.684220790863037
1749920268962806500,7.317806640625,-5.43558406829834,-4.317393779754639,-5.754439830780029
1749920268972819700,7.32781982421875,-5.491030216217041,-4.206402778625488,-5.823433876037598
1749920268982833200,7.337833251953125,-5.54551887512207,-4.096066951751709,-5.891485214233398
1749920268992846300,7.347846435546875,-5.6002092361450195,-3.9863710403442383,-5.957505226135254
1749920269002859800,7.35785986328125,-5.655806064605713,-3.8777360916137695,-6.020602226257324
1749920269012873000,7.367873046875,-5.709636211395264,-3.770693063735962,-6.082551002502441
1749920269022886400,7.377886474609375,-5.761200904846191,-3.6652209758758545,-6.143561840057373
1749920269032899800,7.38789990234375,-5.810044765472412,-3.5611860752105713,-6.203901767730713
1749920269042913000,7.3979130859375,-5.855832099914551,-3.4584031105041504,-6.263788223266602
1749920269052926500,7.407926513671875,-5.898159027099609,-3.356719970703125,-6.323464870452881
1749920269062939600,7.417939697265625,-5.93663215637207,-3.2560579776763916,-6.3831467628479
1749920269072953000,7.427953125,-5.97111701965332,-3.156409978866577,-6.442803859710693
1749920269082966500,7.437966552734375,-6.001779079437256,-3.0578179359436035,-6.502159118652344
1749920269092979700,7.447979736328125,-6.028852939605713,-2.9603829383850098,-6.560873031616211
1749920269102993000,7.457992919921875,-6.052427768707275,-2.8643059730529785,-6.61870813369751
1749920269113006300,7.46800634765625,-6.072482109069824,-2.769934892654419,-6.675489902496338
1749920269123019800,7.478019775390625,-6.089054107666016,-2.6777589321136475,-6.730935096740723
1749920269133033000,7.488032958984375,-6.10231876373291,-2.588371992111206,-6.784584999084473
1749920269143046400,7.49804638671875,-6.112705230712891,-2.502368927001953,-6.835760116577148
1749920269153059800,7.508059814453125,-6.1208062171936035,-2.419377088546753,-6.885516166687012
1749920269163073000,7.518072998046875,-6.1270751953125,-2.339840888977051,-6.93303918838501
1749920269173086500,7.52808642578125,-6.131307125091553,-2.2597498893737793,-6.979125022888184
1749920269183099600,7.538099609375,-6.134619235992432,-2.1798501014709473,-7.023468017578125
1749920269193112800,7.54811279296875,-6.138662815093994,-2.1012120246887207,-7.065134048461914
1749920269203126500,7.55812646484375,-6.1440558433532715,-2.025151014328003,-7.10349178314209
1749920269213139700,7.5681396484375,-6.150214195251465,-1.9526549577713013,-7.138619899749756
1749920269223153000,7.57815283203125,-6.154112815856934,-1.8853729963302612,-7.171708106994629
1749920269233166300,7.588166259765625,-6.155570983886719,-1.8234909772872925,-7.202931880950928
1749920269243179800,7.5981796875,-6.154613971710205,-1.7665810585021973,-7.232367992401123
1749920269253193000,7.60819287109375,-6.151630878448486,-1.7140990495681763,-7.259894847869873
1749920269263206400,7.618206298828125,-6.14654016494751,-1.6663249731063843,-7.285554885864258
1749920269273219600,7.628219482421875,-6.138559818267822,-1.622912049293518,-7.309981822967529
1749920269283233000,7.63823291015625,-6.127287864685059,-1.5835189819335938,-7.333754062652588
1749920269293246500,7.64824658203125,-6.112209796905518,-1.5477099418640137,-7.357624053955078
1749920269303259600,7.658259765625,-6.093130111694336,-1.515144944190979,-7.382119178771973
1749920269313272800,7.66827294921875,-6.070443153381348,-1.4854170083999634,-7.407408237457275
1749920269323286500,7.67828662109375,-6.04522180557251,-1.4543579816818237,-7.435273170471191
1749920269333299700,7.6882998046875,-6.01823616027832,-1.4227230548858643,-7.465460777282715
1749920269343313000,7.69831298828125,-5.989922046661377,-1.389104962348938,-7.498036861419678
1749920269353326300,7.708326416015625,-5.960712909698486,-1.3539930582046509,-7.532509803771973
1749920269363339800,7.71833984375,-5.930224895477295,-1.3219660520553589,-7.566197872161865
1749920269373353000,7.72835302734375,-5.898582935333252,-1.2935960292816162,-7.598775863647461
1749920269383366100,7.7383662109375,-5.8659539222717285,-1.2692190408706665,-7.630021095275879
1749920269393379600,7.748379638671875,-5.8323869705200195,-1.2491470575332642,-7.6598310470581055
1749920269403393000,7.75839306640625,-5.797842025756836,-1.2335729598999023,-7.688222885131836
1749920269413406200,7.76840625,-5.7627458572387695,-1.2216819524765015,-7.715332984924316
1749920269423419600,7.778419677734375,-5.727077960968018,-1.2134180068969727,-7.741346836090088
1749920269433432800,7.788432861328125,-5.6902642250061035,-1.2093780040740967,-7.766540050506592
1749920269443446300,7.7984462890625,-5.6521711349487305,-1.2093219757080078,-7.791222095489502
1749920269453459500,7.80845947265625,-5.61276388168335,-1.2126610279083252,-7.815751075744629
1749920269463473000,7.818472900390625,-5.571703910827637,-1.2193219661712646,-7.840396881103516
1749920269473486300,7.828486328125,-5.528922080993652,-1.2291250228881836,-7.865270137786865
1749920269483499800,7.838499755859375,-5.484285831451416,-1.2420459985733032,-7.890399932861328
1749920269493513000,7.848512939453125,-5.437862873077393,-1.2579489946365356,-7.915740966796875
1749920269503526100,7.858526123046875,-5.389945030212402,-1.276716947555542,-7.941145896911621
1749920269513539300,7.868539306640625,-5.340993881225586,-1.2982720136642456,-7.966372013092041
1749920269523553000,7.878552978515625,-5.291511058807373,-1.322587013244629,-7.991106033325195
1749920269533566200,7.888566162109375,-5.241979122161865,-1.3498740196228027,-8.014928817749023
1749920269543579400,7.898579345703125,-5.192564964294434,-1.3798669576644897,-8.03776741027832
1749920269553592800,7.9085927734375,-5.143345832824707,-1.4124250411987305,-8.059518814086914
1749920269563606300,7.918606201171875,-5.094474792480469,-1.4473190307617188,-8.080044746398926
1749920269573619500,7.928619384765625,-5.0461812019348145,-1.4843109846115112,-8.099225997924805
1749920269583633000,7.9386328125,-4.998517036437988,-1.523237943649292,-8.117082595825195
1749920269593646000,7.94864599609375,-4.951372146606445,-1.5640130043029785,-8.133699417114258
1749920269603659500,7.958659423828125,-4.9049530029296875,-1.6064280271530151,-8.149060249328613
1749920269613673000,7.9686728515625,-4.8596110343933105,-1.6502959728240967,-8.163061141967773
1749920269623686100,7.97868603515625,-4.815461158752441,-1.6952420473098755,-8.175782203674316
1749920269633699300,7.98869921875,-4.772453784942627,-1.7409449815750122,-8.187338829040527
1749920269643712800,7.998712646484375,-4.7304840087890625,-1.7872309684753418,-8.197785377502441
1749920269653726200,8.008726318359376,-4.6894378662109375,-1.8340009450912476,-8.207158088684082
1749920269663739400,8.018739501953124,-4.6492791175842285,-1.8813199996948242,-8.215410232543945
1749920269673752800,8.0287529296875,-4.610895156860352,-1.9302489757537842,-8.221600532531738
1749920269683766300,8.038766357421874,-4.574428081512451,-1.980767011642456,-8.225497245788574
1749920269693779500,8.048779541015625,-4.539575099945068,-2.0326340198516846,-8.227463722229004
1749920269703792600,8.058792724609376,-4.506340980529785,-2.0857961177825928,-8.227542877197266
1749920269713806300,8.068806396484375,-4.474686145782471,-2.140062093734741,-8.225848197937012
1749920269723819500,8.078819580078125,-4.444622039794922,-2.1952381134033203,-8.222509384155273
1749920269733832700,8.088832763671874,-4.416012763977051,-2.2513179779052734,-8.217761039733887
1749920269743846100,8.09884619140625,-4.388493061065674,-2.3084840774536133,-8.211986541748047
1749920269753859300,8.108859375,-4.361592769622803,-2.366849899291992,-8.205633163452148
1749920269763872800,8.118872802734375,-4.33505392074585,-2.426192045211792,-8.19900894165039
1749920269773886000,8.128885986328125,-4.309009075164795,-2.485914945602417,-8.192158699035645
1749920269783899400,8.1388994140625,-4.283401012420654,-2.545564889907837,-8.184995651245117
1749920269793912800,8.148912841796875,-4.2567949295043945,-2.6049859523773193,-8.17878532409668
1749920269803926000,8.158926025390626,-4.227974891662598,-2.6635630130767822,-8.174759864807129
1749920269813939500,8.168939453125,-4.198958873748779,-2.7208080291748047,-8.171440124511719
1749920269823952600,8.17895263671875,-4.169582843780518,-2.7771248817443848,-8.168716430664062
1749920269833965800,8.1889658203125,-4.139777183532715,-2.8332369327545166,-8.1662015914917
1749920269843979300,8.198979248046875,-4.109600067138672,-2.8898510932922363,-8.163451194763184
1749920269853992700,8.20899267578125,-4.079386234283447,-2.947467088699341,-8.159952163696289
1749920269864006000,8.219005859375,-4.049670219421387,-3.006488084793091,-8.155094146728516
1749920269874019300,8.229019287109375,-4.020853042602539,-3.0673139095306396,-8.14836311340332
1749920269884032500,8.239032470703124,-3.9929471015930176,-3.1302919387817383,-8.1395263671875
1749920269894046000,8.2490458984375,-3.965730905532837,-3.195646047592163,-8.12854290008545
1749920269904059100,8.25905908203125,-3.939107894897461,-3.2633249759674072,-8.11543083190918
1749920269914072600,8.269072509765625,-3.9134979248046875,-3.331218957901001,-8.101703643798828
1749920269924085800,8.279085693359375,-3.8888320922851562,-3.3990440368652344,-8.087468147277832
1749920269934099200,8.28909912109375,-3.8650200366973877,-3.4664618968963623,-8.072842597961426
1749920269944112600,8.299112548828125,-3.841958999633789,-3.533113956451416,-8.057944297790527
1749920269954125800,8.309125732421874,-3.820338010787964,-3.598552942276001,-8.042410850524902
1749920269964139000,8.319138916015625,-3.799762010574341,-3.6626129150390625,-8.02637767791748
1749920269974152400,8.32915234375,-3.7809479236602783,-3.728771924972534,-8.009123802185059
1749920269984166000,8.339165771484375,-3.7637979984283447,-3.795525074005127,-7.99097204208374
1749920269994179000,8.349178955078125,-3.7472848892211914,-3.8614299297332764,-7.9727888107299805
1749920270004192300,8.359192138671874,-3.730654001235962,-3.9254539012908936,-7.955140113830566
1749920270014205700,8.369205810546875,-3.7140369415283203,-3.9871408939361572,-7.937943935394287
1749920270024219100,8.37921923828125,-3.6978259086608887,-4.046102046966553,-7.920987129211426
1749920270034232300,8.389232421875,-3.682239055633545,-4.102283954620361,-7.9041948318481445
1749920270044245500,8.39924560546875,-3.667572021484375,-4.155125141143799,-7.888323783874512
1749920270054259000,8.409259033203124,-3.6536200046539307,-4.205130100250244,-7.873600959777832
1749920270064272400,8.4192724609375,-3.640619993209839,-4.252180099487305,-7.85997200012207
1749920270074285600,8.42928564453125,-3.629333972930908,-4.2971110343933105,-7.8466901779174805
1749920270084299000,8.439299072265625,-3.6199100017547607,-4.340943813323975,-7.833126068115234
1749920270094312200,8.449312255859375,-3.6125669479370117,-4.384632110595703,-7.818635940551758
1749920270104325600,8.45932568359375,-3.6074070930480957,-4.428578853607178,-7.802921772003174
1749920270114338800,8.4693388671875,-3.6042160987854004,-4.471881866455078,-7.786747932434082
1749920270124352300,8.479352294921876,-3.602513074874878,-4.515397071838379,-7.769780158996582
1749920270134365700,8.48936572265625,-3.6019339561462402,-4.557283878326416,-7.7527241706848145
1749920270144379000,8.49937890625,-3.6024539470672607,-4.5984368324279785,-7.735570907592773
1749920270154392300,8.509392333984374,-3.603832960128784,-4.638330936431885,-7.718630790710449
1749920270164405500,8.519405517578125,-3.60562801361084,-4.67643404006958,-7.702298164367676
1749920270174419000,8.5294189453125,-3.607790946960449,-4.712369918823242,-7.686675071716309
1749920270184432400,8.539432373046875,-3.6102490425109863,-4.7460808753967285,-7.671789169311523
1749920270194445600,8.549445556640626,-3.613193988800049,-4.777499198913574,-7.657565116882324
1749920270204458800,8.559458740234374,-3.616863965988159,-4.8066229820251465,-7.6439008712768555
1749920270214472200,8.56947216796875,-3.6208889484405518,-4.834394931793213,-7.6306939125061035
1749920270224485600,8.579485595703124,-3.625243902206421,-4.860885143280029,-7.617917060852051
1749920270234498800,8.589498779296875,-3.6307389736175537,-4.885561943054199,-7.605274200439453
1749920270244512000,8.599511962890626,-3.6377549171447754,-4.9079060554504395,-7.592848777770996
1749920270254525400,8.609525390625,-3.646143913269043,-4.927825927734375,-7.580798149108887
1749920270264539000,8.619538818359375,-3.655327081680298,-4.944939136505127,-7.569584846496582
1749920270274552000,8.629552001953124,-3.6652309894561768,-4.95905876159668,-7.559329986572266
1749920270284565200,8.639565185546875,-3.6766250133514404,-4.9686760902404785,-7.550358772277832
1749920270294578700,8.64957861328125,-3.6892669200897217,-4.9741082191467285,-7.542613983154297
1749920270304592100,8.659592041015625,-3.7025771141052246,-4.9763970375061035,-7.5358991622924805
1749920270314605300,8.669605224609375,-3.716186046600342,-4.975665092468262,-7.530311107635498
1749920270324618500,8.679618408203124,-3.729746103286743,-4.972043991088867,-7.525930881500244
1749920270334632000,8.6896318359375,-3.742950916290283,-4.9654059410095215,-7.522939205169678
1749920270344645400,8.699645263671876,-3.755769968032837,-4.95597505569458,-7.521266937255859
1749920270354658600,8.709658447265625,-3.7683498859405518,-4.943745136260986,-7.520864009857178
1749920270364672000,8.719672119140625,-3.7809460163116455,-4.9287872314453125,-7.521582126617432
1749920270374685200,8.729685302734374,-3.7937710285186768,-4.91122579574585,-7.523251056671143
1749920270384698400,8.739698486328125,-3.8069939613342285,-4.891050815582275,-7.525763034820557
1749920270394711800,8.7497119140625,-3.820755958557129,-4.867847919464111,-7.529159069061279
1749920270404725200,8.759725341796875,-3.835205078125,-4.842103958129883,-7.5331549644470215
1749920270414738700,8.76973876953125,-3.8500170707702637,-4.81379508972168,-7.537854194641113
1749920270424751900,8.779751953125,-3.865004062652588,-4.783030033111572,-7.543247222900391
1749920270434765000,8.78976513671875,-3.8791770935058594,-4.748676776885986,-7.550034999847412
1749920270444778500,8.799778564453124,-3.892544984817505,-4.710965156555176,-7.558085918426514
1749920270454791700,8.809791748046875,-3.9061028957366943,-4.6706929206848145,-7.566679954528809
1749920270464805000,8.81980517578125,-3.9198849201202393,-4.62775182723999,-7.575798988342285
1749920270474818300,8.829818359375,-3.9337499141693115,-4.5819091796875,-7.585599899291992
1749920270484831700,8.839831787109375,-3.9477150440216064,-4.532886028289795,-7.59626579284668
1749920270494845000,8.849844970703124,-3.961915969848633,-4.480950832366943,-7.607644081115723
1749920270504858400,8.8598583984375,-3.976720094680786,-4.426346778869629,-7.6194748878479
1749920270514871600,8.86987158203125,-3.992418050765991,-4.369237899780273,-7.631533145904541
1749920270524885000,8.879885009765625,-4.009965896606445,-4.312108039855957,-7.6430511474609375
1749920270534898200,8.889898193359375,-4.029208183288574,-4.255113124847412,-7.653954982757568
1749920270544911600,8.89991162109375,-4.048792839050293,-4.196096897125244,-7.665049076080322
1749920270554925000,8.909925048828125,-4.068337917327881,-4.1352458000183105,-7.676408767700195
1749920270564938200,8.919938232421876,-4.087492942810059,-4.0727128982543945,-7.688104152679443
1749920270574951400,8.929951416015625,-4.105835914611816,-4.008603096008301,-7.700272083282471
1749920270584964600,8.939964599609375,-4.123197078704834,-3.9427490234375,-7.713144779205322
1749920270594978000,8.94997802734375,-4.139164924621582,-3.875443935394287,-7.726769924163818
1749920270604991500,8.959991455078125,-4.153666019439697,-3.8070878982543945,-7.740972995758057
1749920270615004700,8.970004638671876,-4.166901111602783,-3.737916946411133,-7.7555999755859375
1749920270625018000,8.98001806640625,-4.17925500869751,-3.6677849292755127,-7.770616054534912
1749920270635031300,8.99003125,-4.191238880157471,-3.596250057220459,-7.786065101623535
1749920270645044700,9.000044677734374,-4.20320987701416,-3.522963047027588,-7.802034854888916
1749920270655058000,9.010057861328125,-4.215203762054443,-3.4478650093078613,-7.818666934967041
1749920270665071400,9.0200712890625,-4.226975917816162,-3.370990037918091,-7.836260795593262
1749920270675084500,9.03008447265625,-4.238186836242676,-3.2922749519348145,-7.85523796081543
1749920270685098000,9.040097900390625,-4.248723030090332,-3.2115609645843506,-7.875904083251953
1749920270695111400,9.050111328125,-4.258861064910889,-3.1287341117858887,-7.898315906524658
1749920270705124600,9.06012451171875,-4.268758773803711,-3.043853998184204,-7.922438144683838
1749920270715137800,9.0701376953125,-4.2778730392456055,-2.958847999572754,-7.946828842163086
1749920270725151200,9.080151123046875,-4.28607177734375,-2.873760938644409,-7.971525192260742
1749920270735164400,9.090164306640625,-4.293278217315674,-2.7887449264526367,-7.99655294418335
1749920270745177900,9.100177734375,-4.299688816070557,-2.7040228843688965,-8.021806716918945
1749920270755191000,9.11019091796875,-4.304986000061035,-2.6198389530181885,-8.047501564025879
1749920270765204500,9.12020458984375,-4.309992790222168,-2.5361270904541016,-8.073283195495605
1749920270775217700,9.1302177734375,-4.315133094787598,-2.4530210494995117,-8.098714828491211
1749920270785231000,9.140231201171876,-4.3206329345703125,-2.3705921173095703,-8.123595237731934
1749920270795244300,9.150244384765625,-4.3267621994018555,-2.289016008377075,-8.147711753845215
1749920270805257500,9.160257568359375,-4.333761215209961,-2.20845890045166,-8.170945167541504
1749920270815271200,9.170271240234374,-4.3417229652404785,-2.128995895385742,-8.193320274353027
1749920270825284400,9.180284423828125,-4.35046911239624,-2.0506160259246826,-8.21501636505127
1749920270835297500,9.190297607421876,-4.35964298248291,-1.9732919931411743,-8.236268997192383
1749920270845310700,9.200310791015625,-4.368556022644043,-1.898205041885376,-8.256503105163574
1749920270855324400,9.210324462890625,-4.376709938049316,-1.8256969451904297,-8.275768280029297
1749920270865337600,9.220337646484374,-4.383819103240967,-1.7559679746627808,-8.294149398803711
1749920270875350800,9.230350830078125,-4.389885902404785,-1.6888329982757568,-8.31188678741455
1749920270885364000,9.240364013671876,-4.395047187805176,-1.62369704246521,-8.329413414001465
1749920270895377400,9.25037744140625,-4.39943790435791,-1.5599019527435303,-8.347167015075684
1749920270905390800,9.260390869140625,-4.403149127960205,-1.4971230030059814,-8.365378379821777
1749920270915404000,9.270404052734374,-4.406123161315918,-1.4363839626312256,-8.383419036865234
1749920270925417200,9.280417236328125,-4.408347129821777,-1.3769170045852661,-8.401851654052734
1749920270935430700,9.2904306640625,-4.4084038734436035,-1.3186620473861694,-8.421038627624512
1749920270945444000,9.300444091796875,-4.406177043914795,-1.2624419927597046,-8.440775871276855
1749920270955457300,9.310457275390625,-4.401805877685547,-1.2088539600372314,-8.460783004760742
1749920270965470500,9.320470458984374,-4.395592212677002,-1.1583579778671265,-8.480712890625
1749920270975484200,9.330484130859375,-4.388655185699463,-1.1102039813995361,-8.500160217285156
1749920270985497300,9.340497314453126,-4.3809027671813965,-1.0642800331115723,-8.519183158874512
1749920270995510500,9.350510498046875,-4.372140884399414,-1.0205179452896118,-8.537878036499023
1749920271005524000,9.36052392578125,-4.362390995025635,-0.9788720011711121,-8.556253433227539
1749920271015537200,9.370537109375,-4.351769924163818,-0.9392709732055664,-8.574301719665527
1749920271025550600,9.380550537109375,-4.340464115142822,-0.9016450047492981,-8.59197998046875
1749920271035563800,9.390563720703126,-4.3279948234558105,-0.8671709895133972,-8.609389305114746
1749920271045577200,9.4005771484375,-4.314190864562988,-0.8357430100440979,-8.626462936401367
1749920271055590400,9.41059033203125,-4.299407005310059,-0.8071699738502502,-8.643011093139648
1749920271065603800,9.420603759765624,-4.284449100494385,-0.7811830043792725,-8.65864372253418
1749920271075617000,9.430616943359375,-4.269468784332275,-0.7579590082168579,-8.673240661621094
1749920271085630200,9.440630126953126,-4.253756999969482,-0.7389799952507019,-8.686478614807129
1749920271095643600,9.4506435546875,-4.237493991851807,-0.7240800261497498,-8.698408126831055
1749920271105656800,9.46065673828125,-4.221014976501465,-0.712369978427887,-8.709273338317871
1749920271115670300,9.470670166015625,-4.204257011413574,-0.7038030028343201,-8.719106674194336
1749920271125683700,9.48068359375,-4.187379837036133,-0.6987239718437195,-8.727746963500977
1749920271135697000,9.49069677734375,-4.170453071594238,-0.6972799897193909,-8.735095024108887
1749920271145710300,9.50071044921875,-4.153410911560059,-0.6996610164642334,-8.741059303283691
1749920271155723500,9.5107236328125,-4.1361188888549805,-0.7059509754180908,-8.745612144470215
1749920271165736700,9.52073681640625,-4.118352890014648,-0.716060996055603,-8.74884033203125
1749920271175750100,9.530750244140625,-4.099508762359619,-0.7291780114173889,-8.751287460327148
1749920271185763300,9.540763427734374,-4.079455852508545,-0.745398998260498,-8.752985000610352
1749920271195776500,9.550776611328125,-4.058218002319336,-0.7651129961013794,-8.753830909729004
1749920271205790000,9.5607900390625,-4.035543918609619,-0.7878810167312622,-8.754107475280762
1749920271215803400,9.570803466796875,-4.011577129364014,-0.8136979937553406,-8.753795623779297
1749920271225816600,9.580816650390625,-3.9866199493408203,-0.8425840139389038,-8.752808570861816
1749920271235829800,9.590829833984374,-3.961949110031128,-0.8757699728012085,-8.750287055969238
1749920271245843000,9.600843017578125,-3.937947988510132,-0.9130449891090393,-8.74620246887207
1749920271255856400,9.6108564453125,-3.914077043533325,-0.9536240100860596,-8.741086959838867
1749920271265869800,9.620869873046875,-3.8906989097595215,-0.9974899888038635,-8.734871864318848
1749920271275883000,9.630883056640625,-3.868065118789673,-1.044543981552124,-8.727557182312012
1749920271285896200,9.640896240234374,-3.8469650745391846,-1.0945260524749756,-8.719006538391113
1749920271295910000,9.650909912109375,-3.826993942260742,-1.1470229625701904,-8.709535598754883
1749920271305923000,9.660923095703126,-3.807565927505493,-1.2016240358352661,-8.699566841125488
1749920271315936300,9.670936279296875,-3.788206100463867,-1.2580510377883911,-8.689458847045898
1749920271325949700,9.68094970703125,-3.7675840854644775,-1.3144030570983887,-8.679754257202148
1749920271335963100,9.690963134765624,-3.7455849647521973,-1.3705990314483643,-8.670580863952637
1749920271345976300,9.700976318359375,-3.7232840061187744,-1.4280149936676025,-8.661778450012207
1749920271355989500,9.710989501953126,-3.7006919384002686,-1.486562967300415,-8.653366088867188
1749920271366003000,9.7210029296875,-3.6778669357299805,-1.5464119911193848,-8.645185470581055
1749920271376016400,9.731016357421876,-3.6556050777435303,-1.6083300113677979,-8.636358261108398
1749920271386029600,9.741029541015624,-3.6341118812561035,-1.6722439527511597,-8.626794815063477
1749920271396042800,9.751042724609375,-3.6136040687561035,-1.7380369901657104,-8.616418838500977
1749920271406056400,9.761056396484374,-3.594257116317749,-1.8055219650268555,-8.60520076751709
1749920271416069600,9.771069580078125,-3.57586407661438,-1.8741710186004639,-8.593503952026367
1749920271426082800,9.781082763671876,-3.5585920810699463,-1.9436110258102417,-8.581459045410156
1749920271436096000,9.791095947265624,-3.5423059463500977,-2.0137829780578613,-8.56917667388916
1749920271446109400,9.801109375,-3.526603937149048,-2.0851221084594727,-8.556534767150879
1749920271456123000,9.811122802734374,-3.511514902114868,-2.1574370861053467,-8.543546676635742
1749920271466136000,9.821135986328125,-3.497253894805908,-2.2304201126098633,-8.530141830444336
1749920271476149200,9.831149169921876,-3.4840331077575684,-2.3037569522857666,-8.516291618347168
1749920271486162700,9.84116259765625,-3.471827983856201,-2.3772189617156982,-8.502090454101562
1749920271496176000,9.851176025390625,-3.4602770805358887,-2.450632095336914,-8.487812042236328
1749920271506189300,9.861189208984374,-3.4491050243377686,-2.523845911026001,-8.473670959472656
1749920271516202500,9.871202392578125,-3.438477039337158,-2.598270893096924,-8.458616256713867
1749920271526216000,9.8812158203125,-3.4283089637756348,-2.6723690032958984,-8.443758010864258
1749920271536229000,9.89122900390625,-3.4186511039733887,-2.7460999488830566,-8.428995132446289
1749920271546242600,9.90124267578125,-3.4094200134277344,-2.8194549083709717,-8.414216995239258
1749920271556255700,9.911255859375,-3.400947093963623,-2.8932979106903076,-8.398503303527832
1749920271566269000,9.92126904296875,-3.3922829627990723,-2.967499017715454,-8.382369041442871
1749920271576282400,9.931282470703126,-3.383538007736206,-3.0414490699768066,-8.366218566894531
1749920271586295800,9.9412958984375,-3.374541997909546,-3.1151208877563477,-8.350165367126465
1749920271596309000,9.95130908203125,-3.363085985183716,-3.188843011856079,-8.334979057312012
1749920271606322200,9.961322265625,-3.348906993865967,-3.26202392578125,-8.32098388671875
1749920271616335600,9.971335693359375,-3.332149028778076,-3.334120988845825,-8.308289527893066
1749920271626348800,9.981348876953126,-3.3143749237060547,-3.4051480293273926,-8.296143531799316
1749920271636362200,9.9913623046875,-3.295775890350342,-3.4749720096588135,-8.284517288208008
1749920271646375400,10.00137548828125,-3.2768568992614746,-3.5427920818328857,-8.27369213104248
1749920271656388600,10.011388671875,-3.2583189010620117,-3.60870099067688,-8.263299942016602
1749920271666402000,10.021402099609375,-3.240576982498169,-3.672899007797241,-8.253033638000488
1749920271676415500,10.03141552734375,-3.223926067352295,-3.735548973083496,-8.242658615112305
1749920271686428700,10.0414287109375,-3.2081539630889893,-3.7964770793914795,-8.232318878173828
1749920271696441900,10.05144189453125,-3.193458080291748,-3.855703115463257,-8.221888542175293
1749920271706455300,10.061455322265624,-3.179734945297241,-3.9132111072540283,-8.211385726928711
1749920271716468700,10.07146875,-3.166604995727539,-3.9688680171966553,-8.200995445251465
1749920271726482000,10.08148193359375,-3.153656005859375,-4.022439002990723,-8.190964698791504
1749920271736495000,10.0914951171875,-3.14188289642334,-4.074204921722412,-8.180917739868164
1749920271746508300,10.10150830078125,-3.1313729286193848,-4.123505115509033,-8.170930862426758
1749920271756522000,10.11152197265625,-3.12239408493042,-4.169900894165039,-8.160979270935059
1749920271766535200,10.12153515625,-3.11529803276062,-4.213105201721191,-8.151001930236816
1749920271776548400,10.13154833984375,-3.109431028366089,-4.253878116607666,-8.141212463378906
1749920271786561500,10.1415615234375,-3.105067014694214,-4.292280197143555,-8.131525039672852
1749920271796575200,10.1515751953125,-3.102152109146118,-4.328348159790039,-8.121976852416992
1749920271806588400,10.16158837890625,-3.1003119945526123,-4.362057209014893,-8.11274528503418
1749920271816601600,10.1716015625,-3.099186897277832,-4.3933329582214355,-8.104001998901367
1749920271826614800,10.18161474609375,-3.0984299182891846,-4.422100067138672,-8.095907211303711
1749920271836628200,10.191628173828125,-3.0981249809265137,-4.446925163269043,-8.088678359985352
1749920271846641700,10.2016416015625,-3.0981740951538086,-4.468410968780518,-8.082256317138672
1749920271856654800,10.21165478515625,-3.0985019207000732,-4.487082004547119,-8.076559066772461
1749920271866668300,10.221668212890625,-3.099397897720337,-4.503273963928223,-8.071412086486816
1749920271876681500,10.231681396484374,-3.101085901260376,-4.51678991317749,-8.066790580749512
1749920271886694700,10.241694580078125,-3.1038589477539062,-4.52731990814209,-8.062688827514648
1749920271896708000,10.2517080078125,-3.108541965484619,-4.53446102142334,-8.058919906616211
1749920271906721300,10.26172119140625,-3.114837884902954,-4.537961006164551,-8.055652618408203
1749920271916734500,10.271734375,-3.1223230361938477,-4.537965774536133,-8.053001403808594
1749920271926748200,10.281748046875,-3.130342960357666,-4.534365177154541,-8.051253318786621
1749920271936761000,10.291760986328125,-3.139103889465332,-4.526463031768799,-8.050557136535645
1749920271946774500,10.3017744140625,-3.1479289531707764,-4.515340805053711,-8.050954818725586
1749920271956787700,10.31178759765625,-3.157080888748169,-4.501033782958984,-8.052409172058105
1749920271966801200,10.32180126953125,-3.1669230461120605,-4.483493804931641,-8.05484676361084
1749920271976814600,10.331814697265624,-3.1780529022216797,-4.462331771850586,-8.0580472946167
1749920271986827800,10.341827880859375,-3.1905078887939453,-4.4374189376831055,-8.062002182006836
1749920271996841000,10.351841064453126,-3.2042689323425293,-4.409430980682373,-8.066540718078613
1749920272006854100,10.361854248046875,-3.219269037246704,-4.37820291519165,-8.071698188781738
1749920272016867600,10.37186767578125,-3.235388994216919,-4.343495845794678,-8.077521324157715
1749920272026881000,10.381881103515624,-3.252415895462036,-4.305049896240234,-8.084074020385742
1749920272036894200,10.391894287109375,-3.2700068950653076,-4.262675762176514,-8.091447830200195
1749920272046907400,10.401907470703126,-3.2877750396728516,-4.216389179229736,-8.099721908569336
1749920272056920600,10.411920654296875,-3.3053009510040283,-4.166439056396484,-8.108942031860352
1749920272066934000,10.42193408203125,-3.322105884552002,-4.113344192504883,-8.119173049926758
1749920272076947500,10.431947509765624,-3.3383569717407227,-4.057394027709961,-8.130228996276855
1749920272086960600,10.441960693359375,-3.3530449867248535,-3.9990038871765137,-8.142365455627441
1749920272096973800,10.451973876953126,-3.3662140369415283,-3.9386041164398193,-8.15546989440918
1749920272106987300,10.4619873046875,-3.3780219554901123,-3.876530885696411,-8.169366836547852
1749920272117000700,10.472000732421876,-3.38869309425354,-3.813030958175659,-8.183853149414062
1749920272127014000,10.482013916015624,-3.3985579013824463,-3.74767804145813,-8.199115753173828
1749920272137027000,10.492027099609375,-3.407641887664795,-3.6805810928344727,-8.215131759643555
1749920272147040300,10.502040283203126,-3.4159529209136963,-3.612746000289917,-8.231282234191895
1749920272157053700,10.5120537109375,-3.423768997192383,-3.5442910194396973,-8.24738883972168
1749920272167067100,10.522067138671876,-3.431411027908325,-3.475148916244507,-8.263398170471191
1749920272177080300,10.532080322265625,-3.4382660388946533,-3.404723882675171,-8.280058860778809
1749920272187093500,10.542093505859375,-3.4441170692443848,-3.3332550525665283,-8.29743480682373
1749920272197107000,10.55210693359375,-3.4488420486450195,-3.2609810829162598,-8.315547943115234
1749920272207120100,10.5621201171875,-3.452315092086792,-3.188148021697998,-8.334427833557129
1749920272217133600,10.572133544921876,-3.4545509815216064,-3.115247964859009,-8.353829383850098
1749920272227146800,10.582146728515625,-3.4552249908447266,-3.0426061153411865,-8.373727798461914
1749920272237160000,10.592159912109375,-3.454585075378418,-2.9703280925750732,-8.394009590148926
1749920272247173400,10.60217333984375,-3.453155994415283,-2.8980610370635986,-8.414782524108887
1749920272257186600,10.6121865234375,-3.4510440826416016,-2.8260250091552734,-8.4359769821167
1749920272267200000,10.622199951171876,-3.4482638835906982,-2.754481077194214,-8.457536697387695
1749920272277213200,10.632213134765625,-3.444835901260376,-2.683687925338745,-8.47937297821045
1749920272297239800,10.65223974609375,-3.436518907546997,-2.5451550483703613,-8.523269653320312
1749920272307253200,10.662253173828125,-3.4316320419311523,-2.477710008621216,-8.545122146606445
1749920272317266400,10.672266357421876,-3.4260709285736084,-2.4102060794830322,-8.567899703979492
1749920272327279600,10.682279541015625,-3.4200820922851562,-2.3442420959472656,-8.590399742126465
1749920272337293000,10.69229296875,-3.413733959197998,-2.2798049449920654,-8.612648010253906
1749920272347306200,10.70230615234375,-3.4069418907165527,-2.2167599201202393,-8.634808540344238
1749920272357319400,10.7123193359375,-3.3989739418029785,-2.1541268825531006,-8.657975196838379
1749920272367332900,10.722332763671876,-3.3904869556427,-2.0920639038085938,-8.681734085083008
1749920272377346000,10.732345947265625,-3.381294012069702,-2.030435085296631,-8.705713272094727
1749920272387359500,10.742359375,-3.371565103530884,-1.9694910049438477,-8.729774475097656
1749920272397372700,10.75237255859375,-3.363718032836914,-1.909224033355713,-8.753044128417969
1749920272407385900,10.7623857421875,-3.3582799434661865,-1.8505200147628784,-8.775068283081055
1749920272417399300,10.7723994140625,-3.3552589416503906,-1.7941720485687256,-8.795626640319824
1749920272427412500,10.78241259765625,-3.35325288772583,-1.7403810024261475,-8.815345764160156
1749920272437426000,10.792426025390625,-3.352163076400757,-1.6894210577011108,-8.83414363861084
1749920272447439000,10.802439208984374,-3.3513190746307373,-1.6421420574188232,-8.851702690124512
1749920272457452500,10.81245263671875,-3.349925994873047,-1.5984469652175903,-8.868337631225586
1749920272467465700,10.8224658203125,-3.3475959300994873,-1.5580320358276367,-8.884313583374023
1749920272477479200,10.832479248046875,-3.3439199924468994,-1.5205039978027344,-8.899909019470215
1749920272487492400,10.842492431640625,-3.3389859199523926,-1.4856230020523071,-8.915067672729492
1749920272497505500,10.852505615234374,-3.3326680660247803,-1.4528559446334839,-8.92997932434082
1749920272507518700,10.862518798828125,-3.325256109237671,-1.421718955039978,-8.944695472717285
1749920272517532400,10.872532470703124,-3.3173129558563232,-1.39193594455719,-8.959074020385742
1749920272527545600,10.882545654296875,-3.3093669414520264,-1.3635380268096924,-8.972865104675293
1749920272537558800,10.892558837890626,-3.301697015762329,-1.336935043334961,-8.985796928405762
1749920272547572000,10.902572021484374,-3.294384002685547,-1.3125940561294556,-8.99769115447998
1749920272557585400,10.91258544921875,-3.287306070327759,-1.2907060384750366,-9.008540153503418
1749920272567598600,10.9225986328125,-3.2806289196014404,-1.2714190483093262,-9.018289566040039
1749920272577612000,10.932612060546875,-3.273958921432495,-1.2547580003738403,-9.027052879333496
1749920272587625200,10.942625244140626,-3.2669858932495117,-1.2407540082931519,-9.034902572631836
1749920272597638400,10.952638427734374,-3.259603977203369,-1.229436993598938,-9.041834831237793
1749920272607651800,10.96265185546875,-3.2518069744110107,-1.2208540439605713,-9.047798156738281
1749920272617665300,10.972665283203124,-3.2435879707336426,-1.2150739431381226,-9.052732467651367
1749920272627678500,10.982678466796875,-3.2349390983581543,-1.2121740579605103,-9.0565824508667
1749920272637691600,10.992691650390626,-3.2258739471435547,-1.2128410339355469,-9.059046745300293
1749920272647704800,11.002704833984374,-3.2160849571228027,-1.2171390056610107,-9.060152053833008
1749920272657718300,11.01271826171875,-3.205280065536499,-1.2243629693984985,-9.060270309448242
1749920272667731500,11.0227314453125,-3.1933529376983643,-1.2345149517059326,-9.059439659118652
1749920272677745000,11.032744873046875,-3.1802170276641846,-1.2476810216903687,-9.057655334472656
1749920272687758000,11.042758056640626,-3.165757894515991,-1.2639909982681274,-9.054914474487305
1749920272697771300,11.052771240234375,-3.149303913116455,-1.2836190462112427,-9.051435470581055
1749920272707784700,11.06278466796875,-3.131408929824829,-1.3065929412841797,-9.047076225280762
1749920272717798000,11.0727978515625,-3.1129400730133057,-1.3325599431991577,-9.041733741760254
1749920272727811000,11.08281103515625,-3.094909906387329,-1.3609800338745117,-9.035300254821777
1749920272737824500,11.092824462890626,-3.0776050090789795,-1.3921539783477783,-9.027705192565918
1749920272747837400,11.10283740234375,-3.062237024307251,-1.4246530532836914,-9.018950462341309
1749920272757851100,11.11285107421875,-3.0497260093688965,-1.4577879905700684,-9.009140014648438
1749920272767864300,11.1228642578125,-3.0386970043182373,-1.492231011390686,-8.998313903808594
1749920272777877500,11.13287744140625,-3.02878999710083,-1.5291359424591064,-8.98633098602295
1749920272787890700,11.142890625,-3.019869089126587,-1.5685980319976807,-8.97326946258545
1749920272797904100,11.152904052734375,-3.011734962463379,-1.6099729537963867,-8.959366798400879
1749920272807917600,11.16291748046875,-3.004117012023926,-1.6534960269927979,-8.94468879699707
1749920272817930800,11.1729306640625,-2.9966630935668945,-1.6994760036468506,-8.929323196411133
1749920272827944000,11.18294384765625,-2.98899507522583,-1.748250961303711,-8.913385391235352
1749920272837957000,11.19295703125,-2.9799630641937256,-1.8004690408706665,-8.897068977355957
1749920272847970600,11.202970458984375,-2.9703400135040283,-1.8557870388031006,-8.880367279052734
1749920272857983700,11.212983642578125,-2.960103988647461,-1.9140100479125977,-8.863374710083008
1749920272867997200,11.2229970703125,-2.949471950531006,-1.974647045135498,-8.846128463745117
1749920272878010400,11.23301025390625,-2.9381699562072754,-2.0373969078063965,-8.828874588012695
1749920272888023600,11.2430234375,-2.9265949726104736,-2.1018640995025635,-8.81157398223877
1749920272898037000,11.253037109375,-2.9152588844299316,-2.1676790714263916,-8.794150352478027
1749920272908050200,11.26305029296875,-2.9046120643615723,-2.234541893005371,-8.776575088500977
1749920272918063400,11.2730634765625,-2.8948259353637695,-2.302335023880005,-8.758829116821289
1749920272928076800,11.283076904296875,-2.885960102081299,-2.371006965637207,-8.740887641906738
1749920272938090000,11.293090087890626,-2.8779730796813965,-2.4413399696350098,-8.72215461730957
1749920272948103200,11.303103271484375,-2.8712010383605957,-2.5124690532684326,-8.703042984008789
1749920272958116600,11.31311669921875,-2.865679979324341,-2.5844149589538574,-8.683487892150879
1749920272968129800,11.3231298828125,-2.861354112625122,-2.6572000980377197,-8.66344165802002
1749920272978143000,11.33314306640625,-2.8582780361175537,-2.7307820320129395,-8.642807960510254
1749920272988156400,11.343156494140626,-2.856576919555664,-2.8050570487976074,-8.621480941772461
1749920272998169900,11.353169921875,-2.8561010360717773,-2.8798930644989014,-8.599496841430664
1749920273008183000,11.36318310546875,-2.856534957885742,-2.9551360607147217,-8.576981544494629
1749920273018196200,11.3731962890625,-2.8575730323791504,-3.030673027038574,-8.554079055786133
1749920273028209700,11.383209716796875,-2.8588030338287354,-3.106415033340454,-8.531009674072266
1749920273038223000,11.39322314453125,-2.859579086303711,-3.182213068008423,-8.508124351501465
1749920273048236000,11.403236083984375,-2.8594090938568115,-3.257791042327881,-8.485736846923828
1749920273058249500,11.41324951171875,-2.857248067855835,-3.3312671184539795,-8.465529441833496
1749920273068263000,11.423262939453124,-2.853760004043579,-3.402147054672241,-8.447298049926758
1749920273078276000,11.433276123046875,-2.8496150970458984,-3.470273971557617,-8.430686950683594
1749920273088289300,11.443289306640626,-2.845262050628662,-3.535677909851074,-8.415372848510742
1749920273098302500,11.453302490234375,-2.840888023376465,-3.5984790325164795,-8.401135444641113
1749920273108316000,11.46331591796875,-2.8365540504455566,-3.6595098972320557,-8.387420654296875
1749920273118329300,11.473329345703124,-2.832395076751709,-3.7187159061431885,-8.374165534973145
1749920273128342500,11.483342529296875,-2.8284199237823486,-3.7760848999023438,-8.361328125
1749920273138355700,11.493355712890626,-2.8247950077056885,-3.8316569328308105,-8.348782539367676
1749920273148369000,11.503368896484375,-2.821787118911743,-3.8855109214782715,-8.336360931396484
1749920273158382300,11.51338232421875,-2.8195860385894775,-3.9376680850982666,-8.323942184448242
1749920273168395500,11.5233955078125,-2.8183701038360596,-3.98801589012146,-8.311487197875977
1749920273178408700,11.53340869140625,-2.8182671070098877,-4.037255764007568,-8.29898738861084
1749920273188422100,11.543422119140626,-2.8193109035491943,-4.085028171539307,-8.286517143249512
1749920273198435300,11.553435302734375,-2.821281909942627,-4.130792140960693,-8.274232864379883
1749920273208448800,11.56344873046875,-2.823915958404541,-4.174018859863281,-8.262275695800781
1749920273218462000,11.5734619140625,-2.8272290229797363,-4.214254856109619,-8.250715255737305
1749920273228475100,11.58347509765625,-2.8314321041107178,-4.251160144805908,-8.23953914642334
1749920273238488300,11.59348828125,-2.836801052093506,-4.284543037414551,-8.228708267211914
1749920273248501800,11.603501708984375,-2.842989921569824,-4.315878868103027,-8.21774959564209
1749920273258515200,11.61351513671875,-2.849987030029297,-4.344637870788574,-8.206975936889648
1749920273268528400,11.6235283203125,-2.8587849140167236,-4.36975622177124,-8.196529388427734
1749920273278541600,11.63354150390625,-2.8692290782928467,-4.391324996948242,-8.18649673461914
1749920273288555000,11.643554931640624,-2.881135940551758,-4.409599781036377,-8.176939010620117
1749920273298568000,11.65356787109375,-2.894057035446167,-4.42493200302124,-8.167963027954102
1749920273308581400,11.663581298828126,-2.90740704536438,-4.4376420974731445,-8.159704208374023
1749920273318594600,11.673594482421874,-2.9206480979919434,-4.447955131530762,-8.152286529541016
1749920273328607700,11.683607666015625,-2.933497905731201,-4.455895900726318,-8.145800590515137
1749920273338621200,11.69362109375,-2.9453179836273193,-4.46077823638916,-8.140673637390137
1749920273348634400,11.70363427734375,-2.9564220905303955,-4.462410926818848,-8.1367769241333
1749920273358647600,11.7136474609375,-2.967092990875244,-4.460631847381592,-8.13400936126709
1749920273368661000,11.723660888671875,-2.9771718978881836,-4.455198764801025,-8.132427215576172
1749920273378674200,11.733674072265625,-2.987159013748169,-4.446019172668457,-8.131872177124023
1749920273388687400,11.743687255859374,-2.997649908065796,-4.4330267906188965,-8.132146835327148
1749920273398700500,11.753700439453125,-3.0090270042419434,-4.4162068367004395,-8.133108139038086
1749920273408714000,11.7637138671875,-3.02142596244812,-4.395534992218018,-8.134696960449219
1749920273418727400,11.7737275390625,-3.034881114959717,-4.370969772338867,-8.136892318725586
1749920273428740600,11.78374072265625,-3.049449920654297,-4.34243106842041,-8.139676094055176
1749920273438753800,11.79375390625,-3.0648341178894043,-4.309772968292236,-8.143350601196289
1749920273448767000,11.80376708984375,-3.081479072570801,-4.272985935211182,-8.147834777832031
1749920273458780400,11.813780517578126,-3.0995290279388428,-4.232812881469727,-8.152803421020508
1749920273468793600,11.823793701171875,-3.118818998336792,-4.189408779144287,-8.158295631408691
1749920273478806800,11.833806884765625,-3.139085054397583,-4.143125057220459,-8.164387702941895
1749920273488820000,11.843820068359374,-3.1603260040283203,-4.092930793762207,-8.171116828918457
1749920273498833400,11.85383349609375,-3.1826109886169434,-4.039246082305908,-8.178361892700195
1749920273508846600,11.8638466796875,-3.205817937850952,-3.9825689792633057,-8.186043739318848
1749920273518860000,11.873860107421875,-3.2295100688934326,-3.9233810901641846,-8.194183349609375
1749920273528873200,11.883873291015625,-3.253035068511963,-3.8620920181274414,-8.202866554260254
1749920273538886400,11.893886474609374,-3.2756259441375732,-3.799057960510254,-8.212250709533691
1749920273548899800,11.90389990234375,-3.2964959144592285,-3.734570026397705,-8.222551345825195
1749920273558913000,11.9139130859375,-3.314095973968506,-3.669358968734741,-8.23394775390625
1749920273568926200,11.92392626953125,-3.3289449214935303,-3.6030399799346924,-8.246702194213867
1749920273578939600,11.933939697265625,-3.3407249450683594,-3.535823106765747,-8.260926246643066
1749920273588953000,11.943953125,-3.349432945251465,-3.467979907989502,-8.276568412780762
1749920273598966300,11.95396630859375,-3.356398105621338,-3.397731065750122,-8.29301643371582
1749920273608979500,11.9639794921875,-3.3614509105682373,-3.327286958694458,-8.310453414916992
1749920273618992600,11.97399267578125,-3.365370988845825,-3.2566280364990234,-8.328609466552734
1749920273629005800,11.984005859375,-3.3691959381103516,-3.1868650913238525,-8.347174644470215
1749920273639019300,11.994019287109374,-3.3742868900299072,-3.1184608936309814,-8.365900993347168
1749920273649032400,12.004032470703125,-3.3801350593566895,-3.0525660514831543,-8.384698867797852
1749920273659045600,12.014045654296876,-3.3869218826293945,-2.9898550510406494,-8.40337085723877
1749920273669058800,12.024058837890625,-3.3942389488220215,-2.926811933517456,-8.422098159790039
1749920273679072300,12.034072265625,-3.4018359184265137,-2.8637490272521973,-8.44089412689209
1749920273689085700,12.044085693359374,-3.4091548919677734,-2.800992965698242,-8.459885597229004
1749920273699099000,12.054098876953125,-3.4156301021575928,-2.7388839721679688,-8.479171752929688
1749920273709112000,12.064112060546876,-3.420846939086914,-2.677777051925659,-8.49876880645752
1749920273719125200,12.074125244140625,-3.424506902694702,-2.6178829669952393,-8.518733978271484
1749920273729138400,12.084138427734375,-3.4263229370117188,-2.5592899322509766,-8.539175987243652
1749920273739152000,12.09415185546875,-3.4262468814849854,-2.501199960708618,-8.560712814331055
1749920273749165300,12.104165283203125,-3.423927068710327,-2.444448947906494,-8.582910537719727
1749920273759178200,12.11417822265625,-3.419312000274658,-2.389056921005249,-8.605820655822754
1749920273769191700,12.124191650390625,-3.412403106689453,-2.3350439071655273,-8.62946891784668
1749920273779204900,12.134204833984375,-3.403312921524048,-2.2824020385742188,-8.653840065002441
1749920273789218000,12.144218017578124,-3.392287015914917,-2.2311289310455322,-8.678840637207031
1749920273799231200,12.154231201171875,-3.3796188831329346,-2.1812078952789307,-8.70433235168457
1749920273809244700,12.16424462890625,-3.36625599861145,-2.132888078689575,-8.729925155639648
1749920273819257900,12.1742578125,-3.352597951889038,-2.0859599113464355,-8.755441665649414
1749920273829271000,12.18427099609375,-3.339263916015625,-2.040342092514038,-8.780600547790527
1749920273839284200,12.1942841796875,-3.3266289234161377,-1.9960869550704956,-8.805145263671875
1749920273849297700,12.204297607421875,-3.3147430419921875,-1.9535340070724487,-8.828843116760254
1749920273859311000,12.21431103515625,-3.30446195602417,-1.9141069650650024,-8.850105285644531
1749920273869324300,12.22432421875,-3.294996976852417,-1.8780039548873901,-8.869176864624023
1749920273879337500,12.23433740234375,-3.2856380939483643,-1.8451249599456787,-8.886445045471191
1749920273889350700,12.2443505859375,-3.275928020477295,-1.8153049945831299,-8.902246475219727
1749920273899364000,12.254364013671875,-3.2660510540008545,-1.7892290353775024,-8.916444778442383
1749920273909377300,12.264377197265626,-3.2562239170074463,-1.7659889459609985,-8.929473876953125
1749920273919390500,12.274390380859375,-3.2464869022369385,-1.7455470561981201,-8.941313743591309
1749920273929404000,12.28440380859375,-3.236902952194214,-1.7278170585632324,-8.951973915100098
1749920273939417000,12.2944169921875,-3.227346897125244,-1.7126799821853638,-8.961549758911133
1749920273949430300,12.30443017578125,-3.2175769805908203,-1.6999950408935547,-8.970184326171875
1749920273959443700,12.314443603515626,-3.2074129581451416,-1.6896389722824097,-8.977968215942383
1749920273969457000,12.324456787109375,-3.1967270374298096,-1.6816209554672241,-8.984906196594238
1749920273979470000,12.334469970703125,-3.1854751110076904,-1.6760319471359253,-8.990934371948242
1749920273989483300,12.344483154296874,-3.173696994781494,-1.6730259656906128,-8.995936393737793
1749920273999496700,12.35449658203125,-3.1614749431610107,-1.6727240085601807,-8.999800682067871
1749920274009510000,12.364510009765626,-3.148854970932007,-1.6751749515533447,-9.002466201782227
1749920274019523000,12.374523193359375,-3.1357760429382324,-1.6803929805755615,-9.003938674926758
1749920274029536300,12.384536376953125,-3.1221508979797363,-1.688359022140503,-9.00426197052002
1749920274039549400,12.394549560546874,-3.107944965362549,-1.6990289688110352,-9.003488540649414
1749920274049563000,12.40456298828125,-3.0940089225769043,-1.7107830047607422,-9.002019882202148
1749920274059576000,12.414576171875,-3.0807058811187744,-1.7240400314331055,-8.999524116516113
1749920274069589200,12.42458935546875,-3.067078113555908,-1.7398229837417603,-8.995919227600098
1749920274079602400,12.4346025390625,-3.0533230304718018,-1.758085012435913,-8.991167068481445
1749920274089616000,12.444615966796874,-3.0396969318389893,-1.7787909507751465,-8.985204696655273
1749920274099629000,12.454629150390625,-3.0265278816223145,-1.8019130229949951,-8.977933883666992
1749920274109642200,12.464642333984376,-3.014206886291504,-1.8274459838867188,-8.969234466552734
1749920274119655400,12.474655517578125,-3.003261089324951,-1.854984998703003,-8.959216117858887
1749920274129668900,12.4846689453125,-2.993901014328003,-1.884564995765686,-8.9478178024292
1749920274139682000,12.49468212890625,-2.9867420196533203,-1.9165619611740112,-8.934730529785156
1749920274149695200,12.5046953125,-2.9812750816345215,-1.950780987739563,-8.920270919799805
1749920274159708400,12.51470849609375,-2.976957082748413,-1.9871649742126465,-8.904715538024902
1749920274169721600,12.5247216796875,-2.973320960998535,-2.025718927383423,-8.888300895690918
1749920274179734800,12.53473486328125,-2.9698069095611572,-2.066422939300537,-8.871297836303711
1749920274189748200,12.544748291015624,-2.965862989425659,-2.109304904937744,-8.853941917419434
1749920274199761400,12.554761474609375,-2.9612300395965576,-2.1544508934020996,-8.836325645446777
1749920274209774600,12.564774658203126,-2.9559578895568848,-2.2017979621887207,-8.818554878234863
1749920274219787800,12.574787841796875,-2.9501380920410156,-2.251365900039673,-8.800678253173828
1749920274229801000,12.584801025390625,-2.9438159465789795,-2.3032000064849854,-8.782754898071289
1749920274239814700,12.594814697265624,-2.9372289180755615,-2.356745958328247,-8.764838218688965
1749920274249827600,12.60482763671875,-2.9300050735473633,-2.4118518829345703,-8.747145652770996
1749920274259841000,12.614841064453126,-2.9219400882720947,-2.4684019088745117,-8.729805946350098
1749920274269854200,12.624854248046875,-2.9130051136016846,-2.526240110397339,-8.712855339050293
1749920274279867400,12.634867431640625,-2.903378963470459,-2.5850720405578613,-8.696226119995117
1749920274289880800,12.644880859375,-2.8931639194488525,-2.646044969558716,-8.679795265197754
1749920274299894000,12.65489404296875,-2.8824028968811035,-2.708875894546509,-8.66358470916748
1749920274309907500,12.664907470703126,-2.8710339069366455,-2.7729549407958984,-8.647836685180664
1749920274319920600,12.674920654296875,-2.859276056289673,-2.837735891342163,-8.632654190063477
1749920274329933800,12.684933837890625,-2.8474059104919434,-2.9027628898620605,-8.618078231811523
1749920274339947300,12.694947265625,-2.835495948791504,-2.968247890472412,-8.603800773620605
1749920274349960700,12.704960693359375,-2.823652982711792,-3.0338709354400635,-8.589865684509277
1749920274359974000,12.714973876953126,-2.8121700286865234,-3.0990240573883057,-8.576440811157227
1749920274369987000,12.724987060546875,-2.801276922225952,-3.163814067840576,-8.563265800476074
1749920274380000300,12.735000244140625,-2.791398048400879,-3.2282190322875977,-8.550114631652832
1749920274390013700,12.745013671875,-2.7823750972747803,-3.2919390201568604,-8.537124633789062
1749920274400027000,12.75502685546875,-2.7734479904174805,-3.35685396194458,-8.524663925170898
1749920274410040000,12.7650400390625,-2.765531063079834,-3.4208359718322754,-8.512245178222656
1749920274420053200,12.77505322265625,-2.7583510875701904,-3.4839260578155518,-8.49995231628418
1749920274430066700,12.785066650390625,-2.7510530948638916,-3.5449280738830566,-8.488065719604492
1749920274440080000,12.795079833984374,-2.7431869506835938,-3.6028640270233154,-8.476778984069824
1749920274450093000,12.805093017578125,-2.734302043914795,-3.6568539142608643,-8.466344833374023
1749920274460106200,12.815106201171876,-2.7242488861083984,-3.7061619758605957,-8.456948280334473
1749920274470119400,12.825119384765625,-2.713486909866333,-3.754328966140747,-8.448343276977539
1749920274480132600,12.835132568359375,-2.7023050785064697,-3.801114082336426,-8.440439224243164
1749920274490146000,12.84514599609375,-2.69123911857605,-3.8462440967559814,-8.433061599731445
1749920274500159200,12.8551591796875,-2.6807100772857666,-3.88944411277771,-8.426100730895996
